Fri, 28 Aug 1998 17:04:39 -0300 (ADT)
File: abs_xsx_H2OH2O_CFT98.txt

These data are (apparently) computed from the fourier smoothed 
data. These data were used to create the actual figures printed
in TGC98. I have never used these data.

    Wavenumber   log(absorption cross-section/10^{-20} cm^2) 
     (cm^{-1}) 
     3.00752   -1.79088
     6.01504   -1.69142
     9.02256   -1.59027
     12.0301   -1.48787
     15.0376   -1.38461
     18.0451   -1.28095
     21.0526   -1.17729
     24.0602   -1.07407
     27.0677  -0.971715
     30.0752  -0.870623
     33.0827  -0.771192
     36.0902  -0.673798
     39.0977  -0.578797
     42.1053  -0.486520
     45.1128  -0.397271
     48.1203  -0.311327
     51.1278  -0.228934
     54.1353  -0.150302
     57.1429   -7.56151E-02
     60.1504   -5.01709E-03
     63.1579    6.13790E-02
     66.1654   0.123496
     69.1729   0.181289
     72.1805   0.234746
     75.1880   0.283886
     78.1955   0.328759
     81.2030   0.369440
     84.2105   0.406035
     87.2180   0.438669
     90.2256   0.467490
     93.2331   0.492665
     96.2406   0.514374
     99.2481   0.532814
    102.2556   0.548189
     105.263   0.560713
     108.271   0.570602
     111.278   0.578077
     114.286   0.583357
     117.293   0.586659
     120.301   0.588194
     123.308   0.588168
     126.316   0.586777
     129.323   0.584208
     132.331   0.580637
     135.338   0.576225
     138.346   0.571124
     141.353   0.565469
     144.361   0.559381
     147.368   0.552969
     150.376   0.546326
     153.383   0.539533
     156.391   0.532654
     159.398   0.525745
     162.406   0.518846
     165.414   0.511987
     168.421   0.505188
     171.429   0.498459
     174.436   0.491802
     177.444   0.485213
     180.451   0.478678
     183.459   0.472182
     186.466   0.465703
     189.474   0.459216
     192.481   0.452696
     195.489   0.446113
     198.496   0.439439
     201.504   0.432644
     204.511   0.425699
     207.519   0.418577
     210.526   0.411252
     213.534   0.403700
     216.541   0.395897
     219.549   0.387823
     222.556   0.379462
     225.564   0.370797
     228.571   0.361816
     231.579   0.352508
     234.586   0.342866
     237.594   0.332883
     240.602   0.322555
     243.609   0.311882
     246.617   0.300863
     249.624   0.289500
     252.632   0.277796
     255.639   0.265757
     258.647   0.253388
     261.654   0.240697
     264.662   0.227693
     267.669   0.214385
     270.677   0.200784
     273.684   0.186900
     276.692   0.172746
     279.699   0.158335
     282.707   0.143681
     285.714   0.128797
     288.722   0.113698
     291.729    9.84003E-02
     294.737    8.29177E-02
     297.744    6.72683E-02
     300.752    5.14672E-02
     303.759    3.55312E-02
     306.767    1.94779E-02
     309.774    3.32205E-03
     312.782   -1.29182E-02
     315.789   -2.92280E-02
     318.797   -4.55899E-02
     321.805   -6.19906E-02
     324.812   -7.84137E-02
     327.820   -9.48461E-02
     330.827  -0.111275
     333.835  -0.127687
     336.842  -0.144072
     339.850  -0.160418
     342.857  -0.176718
     345.865  -0.192961
     348.872  -0.209140
     351.880  -0.225248
     354.887  -0.241278
     357.895  -0.257222
     360.902  -0.273075
     363.910  -0.288828
     366.917  -0.304474
     369.925  -0.320004
     372.932  -0.335406
     375.940  -0.350670
     378.947  -0.365779
     381.955  -0.380716
     384.962  -0.395460
     387.970  -0.409987
     390.977  -0.424270
     393.985  -0.438276
     396.992  -0.451968
     400.000  -0.465307
     403.008  -0.478245
     406.015  -0.490734
     409.023  -0.502719
     412.030  -0.514141
     415.038  -0.524938
     418.045  -0.535042
     421.053  -0.544386
     424.060  -0.552897
     427.068  -0.560501
     430.075  -0.567123
     433.083  -0.572690
     436.090  -0.577126
     439.098  -0.580360
     442.105  -0.582323
     445.113  -0.582949
     448.120  -0.582178
     451.128  -0.579956
     454.135  -0.576237
     457.143  -0.570980
     460.150  -0.564159
     463.158  -0.555751
     466.165  -0.545752
     469.173  -0.534162
     472.180  -0.520998
     475.188  -0.506289
     478.195  -0.490075
     481.203  -0.472411
     484.211  -0.453363
     487.218  -0.433011
     490.226  -0.411448
     493.233  -0.388778
     496.241  -0.365115
     499.248  -0.340583
     502.256  -0.315317
     505.263  -0.289458
     508.271  -0.263154
     511.278  -0.236555
     514.286  -0.209820
     517.293  -0.183104
     520.301  -0.156567
     523.308  -0.130362
     526.316   -1.04643E-01
     529.323   -7.95558E-02
     532.331   -5.52423E-02
     535.338   -3.18345E-02
     538.346   -9.45423E-03
     541.353    1.17859E-02
     544.361    3.17881E-02
     547.368    5.04653E-02
     550.376    6.77457E-02
     553.383    8.35735E-02
     556.391    9.79047E-02
     559.398   0.110715
     562.406   0.121993
     565.414   0.131745
     568.421   0.139989
     571.429   0.146761
     574.436   0.152110
     577.444   0.156097
     580.451   0.158796
     583.459   0.160291
     586.466   0.160676
     589.474   0.160054
     592.481   0.158531
     595.489   0.156221
     598.496   0.153240
     601.504   0.149705
     604.511   0.145735
     607.519   0.141445
     610.526   0.136948
     613.534   0.132352
     616.541   0.127760
     619.549   0.123264
     622.556   0.118954
     625.564   0.114905
     628.571   0.111185
     631.579   0.107850
     634.586   0.104945
     637.594    1.02504E-01
     640.602    1.00549E-01
     643.609    9.90910E-02
     646.617    9.81281E-02
     649.624    9.76490E-02
     652.632    9.76315E-02
     655.639    9.80443E-02
     658.647    9.88456E-02
     661.654    9.99853E-02
     664.662    1.01408E-01
     667.669    1.03052E-01
     670.677    1.04848E-01
     673.684   0.106723
     676.692   0.108604
     679.699   0.110413
     682.707   0.112073
     685.714   0.113508
     688.722   0.114640
     691.729   0.115397
     694.737   0.115707
     697.744   0.115504
     700.752   0.114725
     703.759   0.113314
     706.767   0.111217
     709.774   0.108390
     712.782    1.04793E-01
     715.789    1.00392E-01
     718.797    9.51606E-02
     721.805    8.90775E-02
     724.812    8.21284E-02
     727.820    7.43048E-02
     730.827    6.56041E-02
     733.835    5.60293E-02
     736.842    4.55869E-02
     739.850    3.42903E-02
     742.857    2.21556E-02
     745.865    9.20295E-03
     748.872   -4.54510E-03
     751.880   -1.90623E-02
     754.887   -3.43202E-02
     757.895   -5.02887E-02
     760.902   -6.69376E-02
     763.910   -8.42345E-02
     766.917   -1.02146E-01
     769.925  -0.120640
     772.932  -0.139684
     775.940  -0.159245
     778.947  -0.179290
     781.955  -0.199790
     784.962  -0.220713
     787.970  -0.242029
     790.977  -0.263711
     793.985  -0.285730
     796.992  -0.308059
     800.000  -0.330672
     803.008  -0.353544
     806.015  -0.376650
     809.023  -0.399966
     812.030  -0.423470
     815.038  -0.447136
     818.045  -0.470943
     821.053  -0.494869
     824.060  -0.518891
     827.068  -0.542987
     830.075  -0.567134
     833.083  -0.591312
     836.090  -0.615497
     839.098  -0.639669
     842.105  -0.663805
     845.113  -0.687884
     848.120  -0.711886
     851.128  -0.735789
     854.135  -0.759572
     857.143  -0.783217
     860.150  -0.806703
     863.158  -0.830013
     866.165  -0.853127
     869.173  -0.876030
     872.180  -0.898707
     875.188  -0.921140
     878.195  -0.943319
     881.203  -0.965229
     884.211  -0.986860
     887.218   -1.00820
     890.226   -1.02925
     893.233   -1.04999
     896.241   -1.07041
     899.248   -1.09052
     902.256   -1.11031
     905.263   -1.12977
     908.271   -1.14890
     911.278   -1.16771
     914.286   -1.18619
     917.293   -1.20433
     920.301   -1.22214
     923.308   -1.23962
     926.316   -1.25677
     929.323   -1.27358
     932.331   -1.29006
     935.338   -1.30621
     938.346   -1.32202
     941.353   -1.33749
     944.361   -1.35262
     947.368   -1.36741
     950.376   -1.38185
     953.383   -1.39594
     956.391   -1.40968
     959.398   -1.42304
     962.406   -1.43604
     965.414   -1.44866
     968.421   -1.46090
     971.429   -1.47273
     974.436   -1.48417
     977.444   -1.49518
     980.451   -1.50578
     983.459   -1.51593
     986.466   -1.52565
     989.474   -1.53490
     992.481   -1.54369
     995.489   -1.55200
     998.496   -1.55982
    1001.504   -1.56715
    1004.511   -1.57397
     1007.52   -1.58029
     1010.53   -1.58608
     1013.53   -1.59135
     1016.54   -1.59608
     1019.55   -1.60029
     1022.56   -1.60396
     1025.56   -1.60709
     1028.57   -1.60969
     1031.58   -1.61175
     1034.59   -1.61328
     1037.59   -1.61429
     1040.60   -1.61478
     1043.61   -1.61477
     1046.62   -1.61425
     1049.62   -1.61326
     1052.63   -1.61178
     1055.64   -1.60986
     1058.65   -1.60749
     1061.65   -1.60471
     1064.66   -1.60153
     1067.67   -1.59797
     1070.68   -1.59406
     1073.68   -1.58981
     1076.69   -1.58527
     1079.70   -1.58044
     1082.71   -1.57536
     1085.71   -1.57007
     1088.72   -1.56457
     1091.73   -1.55890
     1094.74   -1.55310
     1097.74   -1.54717
     1100.75   -1.54116
     1103.76   -1.53509
     1106.77   -1.52898
     1109.77   -1.52285
     1112.78   -1.51672
     1115.79   -1.51061
     1118.80   -1.50454
     1121.80   -1.49852
     1124.81   -1.49257
     1127.82   -1.48669
     1130.83   -1.48088
     1133.83   -1.47515
     1136.84   -1.46951
     1139.85   -1.46394
     1142.86   -1.45844
     1145.86   -1.45300
     1148.87   -1.44762
     1151.88   -1.44227
     1154.89   -1.43693
     1157.89   -1.43160
     1160.90   -1.42625
     1163.91   -1.42086
     1166.92   -1.41541
     1169.92   -1.40987
     1172.93   -1.40422
     1175.94   -1.39844
     1178.95   -1.39250
     1181.95   -1.38639
     1184.96   -1.38008
     1187.97   -1.37355
     1190.98   -1.36680
     1193.98   -1.35981
     1196.99   -1.35256
     1200.00   -1.34506
     1203.01   -1.33729
     1206.02   -1.32926
     1209.02   -1.32098
     1212.03   -1.31245
     1215.04   -1.30368
     1218.05   -1.29469
     1221.05   -1.28550
     1224.06   -1.27612
     1227.07   -1.26659
     1230.08   -1.25693
     1233.08   -1.24716
     1236.09   -1.23731
     1239.10   -1.22743
     1242.11   -1.21752
     1245.11   -1.20764
     1248.12   -1.19779
     1251.13   -1.18802
     1254.14   -1.17834
     1257.14   -1.16877
     1260.15   -1.15934
     1263.16   -1.15005
     1266.17   -1.14092
     1269.17   -1.13195
     1272.18   -1.12314
     1275.19   -1.11447
     1278.20   -1.10595
     1281.20   -1.09754
     1284.21   -1.08924
     1287.22   -1.08100
     1290.23   -1.07279
     1293.23   -1.06458
     1296.24   -1.05632
     1299.25   -1.04796
     1302.26   -1.03946
     1305.26   -1.03077
     1308.27   -1.02182
     1311.28   -1.01258
     1314.29   -1.00297
     1317.29  -0.992962
     1320.30  -0.982491
     1323.31  -0.971514
     1326.32  -0.959988
     1329.32  -0.947875
     1332.33  -0.935142
     1335.34  -0.921762
     1338.35  -0.907715
     1341.35  -0.892989
     1344.36  -0.877580
     1347.37  -0.861490
     1350.38  -0.844730
     1353.38  -0.827321
     1356.39  -0.809289
     1359.40  -0.790669
     1362.41  -0.771503
     1365.41  -0.751842
     1368.42  -0.731738
     1371.43  -0.711253
     1374.44  -0.690450
     1377.44  -0.669397
     1380.45  -0.648165
     1383.46  -0.626823
     1386.47  -0.605442
     1389.47  -0.584093
     1392.48  -0.562841
     1395.49  -0.541751
     1398.50  -0.520881
     1401.50  -0.500284
     1404.51  -0.480007
     1407.52  -0.460088
     1410.53  -0.440558
     1413.53  -0.421437
     1416.54  -0.402741
     1419.55  -0.384469
     1422.56  -0.366615
     1425.56  -0.349163
     1428.57  -0.332086
     1431.58  -0.315349
     1434.59  -0.298908
     1437.59  -0.282712
     1440.60  -0.266702
     1443.61  -0.250815
     1446.62  -0.234980
     1449.62  -0.219126
     1452.63  -0.203179
     1455.64  -0.187061
     1458.65  -0.170700
     1461.65  -0.154022
     1464.66  -0.136958
     1467.67  -0.119446
     1470.68   -1.01425E-01
     1473.68   -8.28480E-02
     1476.69   -6.36731E-02
     1479.70   -4.38683E-02
     1482.71   -2.34147E-02
     1485.71   -2.30308E-03
     1488.72    1.94639E-02
     1491.73    4.18690E-02
     1494.74    6.48834E-02
     1497.74    8.84662E-02
     1500.75   0.112562
     1503.76   0.137105
     1506.77   0.162015
     1509.77   0.187204
     1512.78   0.212572
     1515.79   0.238010
     1518.80   0.263402
     1521.80   0.288625
     1524.81   0.313552
     1527.82   0.338051
     1530.83   0.361990
     1533.83   0.385235
     1536.84   0.407655
     1539.85   0.429121
     1542.86   0.449510
     1545.86   0.468703
     1548.87   0.486592
     1551.88   0.503074
     1554.89   0.518059
     1557.89   0.531467
     1560.90   0.543230
     1563.91   0.553294
     1566.92   0.561616
     1569.92   0.568169
     1572.93   0.572938
     1575.94   0.575923
     1578.95   0.577135
     1581.95   0.576602
     1584.96   0.574360
     1587.97   0.570462
     1590.98   0.564965
     1593.98   0.557942
     1596.99   0.549470
     1600.00   0.539637
     1603.01   0.528534
     1606.02   0.516259
     1609.02   0.502912
     1612.03   0.488596
     1615.04   0.473412
     1618.05   0.457465
     1621.05   0.440853
     1624.06   0.423673
     1627.07   0.406020
     1630.08   0.387980
     1633.08   0.369633
     1636.09   0.351057
     1639.10   0.332317
     1642.11   0.313472
     1645.11   0.294576
     1648.12   0.275671
     1651.13   0.256791
     1654.14   0.237965
     1657.14   0.219211
     1660.15   0.200541
     1663.16   0.181960
     1666.17   0.163469
     1669.17   0.145058
     1672.18   0.126719
     1675.19   0.108435
     1678.20    9.01879E-02
     1681.20    7.19569E-02
     1684.21    5.37206E-02
     1687.22    3.54564E-02
     1690.23    1.71424E-02
     1693.23   -1.24358E-03
     1696.24   -1.97202E-02
     1699.25   -3.83057E-02
     1702.26   -5.70134E-02
     1705.26   -7.58552E-02
     1708.27   -9.48382E-02
     1711.28  -0.113967
     1714.29  -0.133240
     1717.29  -0.152654
     1720.30  -0.172201
     1723.31  -0.191869
     1726.32  -0.211643
     1729.32  -0.231504
     1732.33  -0.251430
     1735.34  -0.271399
     1738.35  -0.291385
     1741.35  -0.311362
     1744.36  -0.331303
     1747.37  -0.351182
     1750.38  -0.370971
     1753.38  -0.390645
     1756.39  -0.410182
     1759.40  -0.429560
     1762.41  -0.448761
     1765.41  -0.467770
     1768.42  -0.486573
     1771.43  -0.505163
     1774.44  -0.523536
     1777.44  -0.541691
     1780.45  -0.559631
     1783.46  -0.577364
     1786.47  -0.594901
     1789.47  -0.612256
     1792.48  -0.629446
     1795.49  -0.646494
     1798.50  -0.663419
     1801.50  -0.680247
     1804.51  -0.697005
     1807.52  -0.713718
     1810.53  -0.730414
     1813.53  -0.747120
     1816.54  -0.763859
     1819.55  -0.780657
     1822.56  -0.797535
     1825.56  -0.814514
     1828.57  -0.831609
     1831.58  -0.848834
     1834.59  -0.866198
     1837.59  -0.883708
     1840.60  -0.901365
     1843.61  -0.919167
     1846.62  -0.937107
     1849.62  -0.955175
     1852.63  -0.973357
     1855.64  -0.991635
     1858.65   -1.00999
     1861.65   -1.02839
     1864.66   -1.04682
     1867.67   -1.06524
     1870.68   -1.08362
     1873.68   -1.10194
     1876.69   -1.12015
     1879.70   -1.13824
     1882.71   -1.15616
     1885.71   -1.17389
     1888.72   -1.19139
     1891.73   -1.20864
     1894.74   -1.22562
     1897.74   -1.24231
     1900.75   -1.25868
     1903.76   -1.27473
     1906.77   -1.29043
     1909.77   -1.30580
     1912.78   -1.32081
     1915.79   -1.33547
     1918.80   -1.34979
     1921.80   -1.36378
     1924.81   -1.37743
     1927.82   -1.39078
     1930.83   -1.40382
     1933.83   -1.41658
     1936.84   -1.42908
     1939.85   -1.44134
     1942.86   -1.45337
     1945.86   -1.46519
     1948.87   -1.47683
     1951.88   -1.48829
     1954.89   -1.49958
     1957.89   -1.51073
     1960.90   -1.52174
     1963.91   -1.53260
     1966.92   -1.54332
     1969.92   -1.55390
     1972.93   -1.56431
     1975.94   -1.57456
     1978.95   -1.58461
     1981.95   -1.59444
     1984.96   -1.60402
     1987.97   -1.61331
     1990.98   -1.62228
     1993.98   -1.63089
     1996.99   -1.63907
     2000.00   -1.64679
     2003.01   -1.65399
     2006.02   -1.66062
     2009.02   -1.66662
     2012.03   -1.67193
     2015.04   -1.67650
     2018.05   -1.68028
     2021.05   -1.68321
     2024.06   -1.68525
     2027.07   -1.68634
     2030.08   -1.68646
     2033.08   -1.68557
     2036.09   -1.68363
     2039.10   -1.68064
     2042.11   -1.67656
     2045.11   -1.67140
     2048.12   -1.66516
     2051.13   -1.65784
     2054.14   -1.64947
     2057.14   -1.64008
     2060.15   -1.62970
     2063.16   -1.61837
     2066.17   -1.60616
     2069.17   -1.59311
     2072.18   -1.57930
     2075.19   -1.56481
     2078.20   -1.54971
     2081.20   -1.53410
     2084.21   -1.51807
     2087.22   -1.50171
     2090.23   -1.48512
     2093.23   -1.46841
     2096.24   -1.45167
     2099.25   -1.43501
     2102.26   -1.41854
     2105.26   -1.40234
     2108.27   -1.38652
     2111.28   -1.37117
     2114.29   -1.35637
     2117.29   -1.34222
     2120.30   -1.32878
     2123.31   -1.31612
     2126.32   -1.30431
     2129.32   -1.29339
     2132.33   -1.28341
     2135.34   -1.27441
     2138.35   -1.26641
     2141.35   -1.25943
     2144.36   -1.25347
     2147.37   -1.24853
     2150.38   -1.24459
     2153.38   -1.24165
     2156.39   -1.23966
     2159.40   -1.23860
     2162.41   -1.23841
     2165.41   -1.23906
     2168.42   -1.24047
     2171.43   -1.24259
     2174.44   -1.24536
     2177.44   -1.24870
     2180.45   -1.25254
     2183.46   -1.25681
     2186.47   -1.26143
     2189.47   -1.26633
     2192.48   -1.27145
     2195.49   -1.27670
     2198.50   -1.28202
     2201.50   -1.28734
     2204.51   -1.29261
     2207.52   -1.29777
     2210.53   -1.30276
     2213.53   -1.30756
     2216.54   -1.31211
     2219.55   -1.31639
     2222.56   -1.32037
     2225.56   -1.32405
     2228.57   -1.32739
     2231.58   -1.33042
     2234.59   -1.33313
     2237.59   -1.33552
     2240.60   -1.33763
     2243.61   -1.33946
     2246.62   -1.34106
     2249.62   -1.34246
     2252.63   -1.34369
     2255.64   -1.34480
     2258.65   -1.34583
     2261.65   -1.34684
     2264.66   -1.34787
     2267.67   -1.34898
     2270.68   -1.35022
     2273.68   -1.35164
     2276.69   -1.35330
     2279.70   -1.35524
     2282.71   -1.35751
     2285.71   -1.36017
     2288.72   -1.36325
     2291.73   -1.36679
     2294.74   -1.37082
     2297.74   -1.37538
     2300.75   -1.38050
     2303.76   -1.38618
     2306.77   -1.39246
     2309.77   -1.39933
     2312.78   -1.40681
     2315.79   -1.41489
     2318.80   -1.42357
     2321.80   -1.43283
     2324.81   -1.44267
     2327.82   -1.45306
     2330.83   -1.46397
     2333.83   -1.47539
     2336.84   -1.48727
     2339.85   -1.49959
     2342.86   -1.51230
     2345.86   -1.52538
     2348.87   -1.53877
     2351.88   -1.55243
     2354.89   -1.56633
     2357.89   -1.58042
     2360.90   -1.59466
     2363.91   -1.60900
     2366.92   -1.62341
     2369.92   -1.63784
     2372.93   -1.65227
     2375.94   -1.66664
     2378.95   -1.68094
     2381.95   -1.69513
     2384.96   -1.70917
     2387.97   -1.72306
     2390.98   -1.73675
     2393.98   -1.75024
     2396.99   -1.76350
     2400.00   -1.77653
     2403.01   -1.78931
     2406.02   -1.80182
     2409.02   -1.81407
     2412.03   -1.82605
     2415.04   -1.83775
     2418.05   -1.84918
     2421.05   -1.86033
     2424.06   -1.87120
     2427.07   -1.88180
     2430.08   -1.89213
     2433.08   -1.90220
     2436.09   -1.91200
     2439.10   -1.92155
     2442.11   -1.93083
     2445.11   -1.93986
     2448.12   -1.94864
     2451.13   -1.95718
     2454.14   -1.96546
     2457.14   -1.97350
     2460.15   -1.98129
     2463.16   -1.98883
     2466.17   -1.99612
     2469.17   -2.00316
     2472.18   -2.00995
     2475.19   -2.01648
     2478.20   -2.02275
     2481.20   -2.02875
     2484.21   -2.03449
     2487.22   -2.03995
     2490.23   -2.04515
     2493.23   -2.05007
     2496.24   -2.05471
     2499.25   -2.05907
     2502.26   -2.06316
     2505.26   -2.06698
     2508.27   -2.07052
     2511.28   -2.07379
     2514.29   -2.07680
     2517.29   -2.07956
     2520.30   -2.08207
     2523.31   -2.08434
     2526.32   -2.08638
     2529.32   -2.08822
     2532.33   -2.08985
     2535.34   -2.09130
     2538.35   -2.09259
     2541.35   -2.09372
     2544.36   -2.09472
     2547.37   -2.09560
     2550.38   -2.09639
     2553.38   -2.09709
     2556.39   -2.09774
     2559.40   -2.09833
     2562.41   -2.09890
     2565.41   -2.09945
     2568.42   -2.10001
     2571.43   -2.10058
     2574.44   -2.10117
     2577.44   -2.10180
     2580.45   -2.10248
     2583.46   -2.10320
     2586.47   -2.10398
     2589.47   -2.10481
     2592.48   -2.10570
     2595.49   -2.10665
     2598.50   -2.10765
     2601.50   -2.10870
     2604.51   -2.10978
     2607.52   -2.11090
     2610.53   -2.11204
     2613.53   -2.11319
     2616.54   -2.11434
     2619.55   -2.11547
     2622.56   -2.11657
     2625.56   -2.11763
     2628.57   -2.11862
     2631.58   -2.11954
     2634.59   -2.12037
     2637.59   -2.12110
     2640.60   -2.12170
     2643.61   -2.12218
     2646.62   -2.12250
     2649.62   -2.12266
     2652.63   -2.12265
     2655.64   -2.12246
     2658.65   -2.12208
     2661.65   -2.12149
     2664.66   -2.12070
     2667.67   -2.11970
     2670.68   -2.11848
     2673.68   -2.11703
     2676.69   -2.11536
     2679.70   -2.11347
     2682.71   -2.11134
     2685.71   -2.10899
     2688.72   -2.10641
     2691.73   -2.10361
     2694.74   -2.10058
     2697.74   -2.09733
     2700.75   -2.09386
     2703.76   -2.09017
     2706.77   -2.08628
     2709.77   -2.08217
     2712.78   -2.07786
     2715.79   -2.07334
     2718.80   -2.06863
     2721.80   -2.06372
     2724.81   -2.05862
     2727.82   -2.05334
     2730.83   -2.04787
     2733.83   -2.04223
     2736.84   -2.03641
     2739.85   -2.03041
     2742.86   -2.02426
     2745.86   -2.01794
     2748.87   -2.01147
     2751.88   -2.00484
     2754.89   -1.99807
     2757.89   -1.99116
     2760.90   -1.98412
     2763.91   -1.97695
     2766.92   -1.96965
     2769.92   -1.96225
     2772.93   -1.95473
     2775.94   -1.94711
     2778.95   -1.93940
     2781.95   -1.93160
     2784.96   -1.92371
     2787.97   -1.91575
     2790.98   -1.90771
     2793.98   -1.89961
     2796.99   -1.89143
     2800.00   -1.88319
     2803.01   -1.87489
     2806.01   -1.86652
     2809.02   -1.85808
     2812.03   -1.84957
     2815.04   -1.84098
     2818.05   -1.83231
     2821.05   -1.82354
     2824.06   -1.81466
     2827.07   -1.80567
     2830.08   -1.79654
     2833.08   -1.78727
     2836.09   -1.77783
     2839.10   -1.76821
     2842.11   -1.75838
     2845.11   -1.74833
     2848.12   -1.73804
     2851.13   -1.72749
     2854.14   -1.71665
     2857.14   -1.70551
     2860.15   -1.69405
     2863.16   -1.68225
     2866.17   -1.67010
     2869.17   -1.65758
     2872.18   -1.64468
     2875.19   -1.63138
     2878.20   -1.61770
     2881.20   -1.60361
     2884.21   -1.58913
     2887.22   -1.57426
     2890.23   -1.55900
     2893.23   -1.54336
     2896.24   -1.52736
     2899.25   -1.51102
     2902.26   -1.49437
     2905.26   -1.47742
     2908.27   -1.46020
     2911.28   -1.44275
     2914.29   -1.42509
     2917.29   -1.40728
     2920.30   -1.38933
     2923.31   -1.37129
     2926.32   -1.35321
     2929.32   -1.33511
     2932.33   -1.31704
     2935.34   -1.29904
     2938.35   -1.28114
     2941.35   -1.26338
     2944.36   -1.24578
     2947.37   -1.22838
     2950.38   -1.21120
     2953.38   -1.19426
     2956.39   -1.17758
     2959.40   -1.16117
     2962.41   -1.14504
     2965.41   -1.12919
     2968.42   -1.11361
     2971.43   -1.09831
     2974.44   -1.08327
     2977.44   -1.06846
     2980.45   -1.05387
     2983.46   -1.03948
     2986.47   -1.02525
     2989.47   -1.01115
     2992.48  -0.997144
     2995.49  -0.983194
     2998.50  -0.969262
     3001.50  -0.955305
     3004.51  -0.941285
     3007.52  -0.927159
     3010.53  -0.912889
     3013.53  -0.898436
     3016.54  -0.883767
     3019.55  -0.868847
     3022.56  -0.853650
     3025.56  -0.838151
     3028.57  -0.822329
     3031.58  -0.806171
     3034.59  -0.789668
     3037.59  -0.772816
     3040.60  -0.755619
     3043.61  -0.738084
     3046.62  -0.720229
     3049.62  -0.702072
     3052.63  -0.683642
     3055.64  -0.664973
     3058.65  -0.646102
     3061.65  -0.627074
     3064.66  -0.607937
     3067.67  -0.588744
     3070.68  -0.569552
     3073.68  -0.550421
     3076.69  -0.531415
     3079.70  -0.512597
     3082.71  -0.494034
     3085.71  -0.475792
     3088.72  -0.457940
     3091.73  -0.440542
     3094.74  -0.423665
     3097.74  -0.407373
     3100.75  -0.391727
     3103.76  -0.376785
     3106.77  -0.362603
     3109.77  -0.349233
     3112.78  -0.336724
     3115.79  -0.325119
     3118.80  -0.314457
     3121.80  -0.304772
     3124.81  -0.296096
     3127.82  -0.288452
     3130.83  -0.281862
     3133.83  -0.276340
     3136.84  -0.271898
     3139.85  -0.268541
     3142.86  -0.266273
     3145.86  -0.265091
     3148.87  -0.264988
     3151.88  -0.265955
     3154.89  -0.267979
     3157.89  -0.271043
     3160.90  -0.275129
     3163.91  -0.280214
     3166.92  -0.286275
     3169.92  -0.293285
     3172.93  -0.301217
     3175.94  -0.310043
     3178.95  -0.319729
     3181.95  -0.330247
     3184.96  -0.341562
     3187.97  -0.353641
     3190.98  -0.366450
     3193.98  -0.379955
     3196.99  -0.394119
     3200.00  -0.408909
     3203.01  -0.424288
     3206.01  -0.440220
     3209.02  -0.456669
     3212.03  -0.473598
     3215.04  -0.490972
     3218.05  -0.508754
     3221.05  -0.526907
     3224.06  -0.545394
     3227.07  -0.564179
     3230.08  -0.583227
     3233.08  -0.602498
     3236.09  -0.621959
     3239.10  -0.641572
     3242.11  -0.661301
     3245.11  -0.681112
     3248.12  -0.700969
     3251.13  -0.720837
     3254.14  -0.740683
     3257.14  -0.760473
     3260.15  -0.780175
     3263.16  -0.799757
     3266.17  -0.819189
     3269.17  -0.838440
     3272.18  -0.857482
     3275.19  -0.876287
     3278.20  -0.894830
     3281.20  -0.913084
     3284.21  -0.931026
     3287.22  -0.948632
     3290.23  -0.965881
     3293.23  -0.982752
     3296.24  -0.999225
     3299.25   -1.01528
     3302.26   -1.03090
     3305.26   -1.04607
     3308.27   -1.06077
     3311.28   -1.07499
     3314.29   -1.08870
     3317.29   -1.10190
     3320.30   -1.11457
     3323.31   -1.12669
     3326.32   -1.13826
     3329.32   -1.14925
     3332.33   -1.15964
     3335.34   -1.16944
     3338.35   -1.17861
     3341.35   -1.18715
     3344.36   -1.19503
     3347.37   -1.20225
     3350.38   -1.20879
     3353.38   -1.21463
     3356.39   -1.21976
     3359.40   -1.22416
     3362.41   -1.22782
     3365.41   -1.23073
     3368.42   -1.23286
     3371.43   -1.23422
     3374.44   -1.23478
     3377.44   -1.23454
     3380.45   -1.23349
     3383.46   -1.23162
     3386.47   -1.22893
     3389.47   -1.22541
     3392.48   -1.22105
     3395.49   -1.21587
     3398.50   -1.20985
     3401.50   -1.20301
     3404.51   -1.19534
     3407.52   -1.18685
     3410.53   -1.17755
     3413.53   -1.16745
     3416.54   -1.15656
     3419.55   -1.14488
     3422.56   -1.13243
     3425.56   -1.11922
     3428.57   -1.10527
     3431.58   -1.09058
     3434.59   -1.07517
     3437.59   -1.05905
     3440.60   -1.04223
     3443.61   -1.02473
     3446.62   -1.00655
     3449.62  -0.987705
     3452.63  -0.968204
     3455.64  -0.948055
     3458.65  -0.927263
     3461.65  -0.905838
     3464.66  -0.883784
     3467.67  -0.861106
     3470.68  -0.837811
     3473.68  -0.813903
     3476.69  -0.789389
     3479.70  -0.764275
     3482.71  -0.738568
     3485.71  -0.712279
     3488.72  -0.685417
     3491.73  -0.657997
     3494.74  -0.630034
     3497.74  -0.601547
     3500.75  -0.572560
     3503.76  -0.543099
     3506.77  -0.513193
     3509.77  -0.482879
     3512.78  -0.452195
     3515.79  -0.421185
     3518.80  -0.389897
     3521.80  -0.358386
     3524.81  -0.326707
     3527.82  -0.294922
     3530.83  -0.263097
     3533.83  -0.231300
     3536.84  -0.199602
     3539.85  -0.168078
     3542.86  -0.136802
     3545.86  -0.105850
     3548.87   -7.52989E-02
     3551.88   -4.52227E-02
     3554.89   -1.56964E-02
     3557.89    1.32106E-02
     3560.90    4.14297E-02
     3563.91    6.88985E-02
     3566.92    9.55591E-02
     3569.92   0.121360
     3572.93   0.146256
     3575.94   0.170209
     3578.95   0.193191
     3581.95   0.215182
     3584.96   0.236167
     3587.97   0.256146
     3590.98   0.275126
     3593.98   0.293122
     3596.99   0.310159
     3600.00   0.326272
     3603.01   0.341503
     3606.01   0.355900
     3609.02   0.369523
     3612.03   0.382433
     3615.04   0.394698
     3618.05   0.406391
     3621.05   0.417587
     3624.06   0.428363
     3627.07   0.438795
     3630.08   0.448959
     3633.08   0.458931
     3636.09   0.468778
     3639.10   0.478568
     3642.11   0.488359
     3645.11   0.498204
     3648.12   0.508147
     3651.13   0.518222
     3654.14   0.528457
     3657.14   0.538864
     3660.15   0.549449
     3663.16   0.560205
     3666.17   0.571113
     3669.17   0.582146
     3672.18   0.593263
     3675.19   0.604414
     3678.20   0.615540
     3681.20   0.626574
     3684.21   0.637441
     3687.22   0.648057
     3690.23   0.658334
     3693.23   0.668183
     3696.24   0.677510
     3699.25   0.686220
     3702.26   0.694219
     3705.26   0.701414
     3708.27   0.707720
     3711.28   0.713053
     3714.29   0.717337
     3717.29   0.720504
     3720.30   0.722494
     3723.31   0.723260
     3726.32   0.722764
     3729.32   0.720981
     3732.33   0.717898
     3735.34   0.713514
     3738.35   0.707842
     3741.35   0.700909
     3744.36   0.692752
     3747.37   0.683423
     3750.38   0.672982
     3753.38   0.661503
     3756.39   0.649068
     3759.40   0.635767
     3762.41   0.621699
     3765.41   0.606967
     3768.42   0.591679
     3771.43   0.575945
     3774.44   0.559875
     3777.44   0.543582
     3780.45   0.527172
     3783.46   0.510750
     3786.47   0.494418
     3789.47   0.478264
     3792.48   0.462376
     3795.49   0.446828
     3798.50   0.431686
     3801.50   0.417004
     3804.51   0.402826
     3807.52   0.389183
     3810.53   0.376093
     3813.53   0.363566
     3816.54   0.351595
     3819.55   0.340163
     3822.56   0.329245
     3825.56   0.318803
     3828.57   0.308788
     3831.58   0.299147
     3834.59   0.289817
     3837.59   0.280731
     3840.60   0.271815
     3843.61   0.262995
     3846.62   0.254192
     3849.62   0.245330
     3852.63   0.236330
     3855.64   0.227120
     3858.65   0.217630
     3861.65   0.207792
     3864.66   0.197548
     3867.67   0.186845
     3870.68   0.175637
     3873.68   0.163888
     3876.69   0.151570
     3879.70   0.138662
     3882.71   0.125156
     3885.71   0.111050
     3888.72    9.63511E-02
     3891.73    8.10757E-02
     3894.74    6.52484E-02
     3897.74    4.88997E-02
     3900.75    3.20675E-02
     3903.76    1.47954E-02
     3906.77   -2.86989E-03
     3909.77   -2.08763E-02
     3912.78   -3.91710E-02
     3915.79   -5.76984E-02
     3918.80   -7.64041E-02
     3921.80   -9.52329E-02
     3924.81  -0.114133
     3927.82  -0.133055
     3930.83  -0.151952
     3933.83  -0.170785
     3936.84  -0.189515
     3939.85  -0.208115
     3942.86  -0.226559
     3945.86  -0.244829
     3948.87  -0.262915
     3951.88  -0.280813
     3954.89  -0.298523
     3957.89  -0.316054
     3960.90  -0.333421
     3963.91  -0.350642
     3966.92  -0.367740
     3969.92  -0.384744
     3972.93  -0.401685
     3975.94  -0.418594
     3978.95  -0.435506
     3981.95  -0.452456
     3984.96  -0.469478
     3987.97  -0.486605
     3990.98  -0.503867
     3993.98  -0.521292
     3996.99  -0.538904
     4000.00  -0.556723
     4003.01  -0.574763
     4006.01  -0.593033
     4009.02  -0.611536
     4012.03  -0.630270
     4015.04  -0.649227
     4018.05  -0.668392
     4021.05  -0.687743
     4024.06  -0.707255
     4027.07  -0.726897
     4030.08  -0.746632
     4033.08  -0.766419
     4036.09  -0.786214
     4039.10  -0.805969
     4042.11  -0.825635
     4045.11  -0.845162
     4048.12  -0.864496
     4051.13  -0.883586
     4054.14  -0.902383
     4057.14  -0.920835
     4060.15  -0.938897
     4063.16  -0.956524
     4066.17  -0.973676
     4069.17  -0.990315
     4072.18   -1.00641
     4075.19   -1.02193
     4078.20   -1.03686
     4081.20   -1.05118
     4084.21   -1.06487
     4087.22   -1.07793
     4090.23   -1.09036
     4093.23   -1.10214
     4096.24   -1.11331
     4099.25   -1.12385
     4102.26   -1.13379
     4105.26   -1.14313
     4108.27   -1.15191
     4111.28   -1.16013
     4114.29   -1.16782
     4117.29   -1.17500
     4120.30   -1.18169
     4123.31   -1.18791
     4126.32   -1.19368
     4129.32   -1.19903
     4132.33   -1.20395
     4135.34   -1.20848
     4138.35   -1.21262
     4141.35   -1.21639
     4144.36   -1.21979
     4147.37   -1.22283
     4150.38   -1.22551
     4153.38   -1.22783
     4156.39   -1.22979
     4159.40   -1.23139
     4162.41   -1.23264
     4165.41   -1.23351
     4168.42   -1.23402
     4171.43   -1.23416
     4174.44   -1.23392
     4177.44   -1.23331
     4180.45   -1.23233
     4183.46   -1.23097
     4186.47   -1.22925
     4189.47   -1.22718
     4192.48   -1.22476
     4195.49   -1.22201
     4198.50   -1.21895
     4201.50   -1.21561
     4204.51   -1.21200
     4207.52   -1.20817
     4210.53   -1.20415
     4213.53   -1.19997
     4216.54   -1.19567
     4219.55   -1.19130
     4222.56   -1.18690
     4225.56   -1.18252
     4228.57   -1.17821
     4231.58   -1.17401
     4234.59   -1.16997
     4237.59   -1.16615
     4240.60   -1.16257
     4243.61   -1.15930
     4246.62   -1.15636
     4249.62   -1.15380
     4252.63   -1.15165
     4255.64   -1.14994
     4258.65   -1.14869
     4261.65   -1.14793
     4264.66   -1.14766
     4267.67   -1.14789
     4270.68   -1.14864
     4273.68   -1.14989
     4276.69   -1.15163
     4279.70   -1.15387
     4282.71   -1.15657
     4285.71   -1.15971
     4288.72   -1.16327
     4291.73   -1.16722
     4294.74   -1.17153
     4297.74   -1.17615
     4300.75   -1.18106
     4303.76   -1.18621
     4306.77   -1.19156
     4309.77   -1.19708
     4312.78   -1.20273
     4315.79   -1.20846
     4318.80   -1.21426
     4321.80   -1.22007
     4324.81   -1.22589
     4327.82   -1.23167
     4330.83   -1.23740
     4333.83   -1.24306
     4336.84   -1.24863
     4339.85   -1.25412
     4342.86   -1.25950
     4345.86   -1.26479
     4348.87   -1.26999
     4351.88   -1.27511
     4354.89   -1.28016
     4357.89   -1.28515
     4360.90   -1.29010
     4363.91   -1.29505
     4366.92   -1.30000
     4369.92   -1.30500
     4372.93   -1.31006
     4375.94   -1.31522
     4378.95   -1.32051
     4381.96   -1.32595
     4384.96   -1.33158
     4387.97   -1.33742
     4390.98   -1.34350
     4393.98   -1.34986
     4396.99   -1.35651
     4400.00   -1.36347
     4403.01   -1.37077
     4406.02   -1.37842
     4409.02   -1.38643
     4412.03   -1.39483
     4415.04   -1.40362
     4418.04   -1.41280
     4421.05   -1.42238
     4424.06   -1.43236
     4427.07   -1.44274
     4430.08   -1.45351
     4433.08   -1.46467
     4436.09   -1.47622
     4439.10   -1.48814
     4442.10   -1.50041
     4445.11   -1.51304
     4448.12   -1.52599
     4451.13   -1.53926
     4454.14   -1.55282
     4457.14   -1.56666
     4460.15   -1.58076
     4463.16   -1.59508
     4466.17   -1.60962
     4469.17   -1.62434
     4472.18   -1.63922
     4475.19   -1.65423
     4478.20   -1.66933
     4481.20   -1.68451
     4484.21   -1.69972
     4487.22   -1.71494
     4490.23   -1.73012
     4493.23   -1.74523
     4496.24   -1.76022
     4499.25   -1.77506
     4502.26   -1.78971
     4505.26   -1.80411
     4508.27   -1.81823
     4511.28   -1.83201
     4514.29   -1.84541
     4517.29   -1.85838
     4520.30   -1.87087
     4523.31   -1.88283
     4526.32   -1.89422
     4529.32   -1.90498
     4532.33   -1.91508
     4535.34   -1.92447
     4538.35   -1.93310
     4541.35   -1.94095
     4544.36   -1.94798
     4547.37   -1.95417
     4550.38   -1.95947
     4553.38   -1.96389
     4556.39   -1.96740
     4559.40   -1.96999
     4562.41   -1.97167
     4565.41   -1.97243
     4568.42   -1.97230
     4571.43   -1.97129
     4574.44   -1.96941
     4577.44   -1.96671
     4580.45   -1.96322
     4583.46   -1.95898
     4586.47   -1.95405
     4589.47   -1.94846
     4592.48   -1.94228
     4595.49   -1.93558
     4598.50   -1.92841
     4601.50   -1.92084
     4604.51   -1.91293
     4607.52   -1.90477
     4610.53   -1.89640
     4613.53   -1.88791
     4616.54   -1.87935
     4619.55   -1.87079
     4622.56   -1.86229
     4625.56   -1.85390
     4628.57   -1.84568
     4631.58   -1.83767
     4634.59   -1.82991
     4637.59   -1.82244
     4640.60   -1.81528
     4643.61   -1.80846
     4646.62   -1.80199
     4649.62   -1.79590
     4652.63   -1.79017
     4655.64   -1.78482
     4658.65   -1.77983
     4661.65   -1.77521
     4664.66   -1.77092
     4667.67   -1.76697
     4670.68   -1.76333
     4673.68   -1.75997
     4676.69   -1.75689
     4679.70   -1.75405
     4682.71   -1.75144
     4685.71   -1.74904
     4688.72   -1.74684
     4691.73   -1.74481
     4694.74   -1.74295
     4697.74   -1.74125
     4700.75   -1.73972
     4703.76   -1.73835
     4706.77   -1.73716
     4709.77   -1.73615
     4712.78   -1.73536
     4715.79   -1.73479
     4718.80   -1.73448
     4721.80   -1.73447
     4724.81   -1.73479
     4727.82   -1.73549
     4730.83   -1.73660
     4733.83   -1.73818
     4736.84   -1.74026
     4739.85   -1.74291
     4742.86   -1.74616
     4745.86   -1.75006
     4748.87   -1.75466
     4751.88   -1.76000
     4754.89   -1.76611
     4757.89   -1.77302
     4760.90   -1.78077
     4763.91   -1.78938
     4766.92   -1.79884
     4769.92   -1.80918
     4772.93   -1.82040
     4775.94   -1.83247
     4778.95   -1.84540
     4781.96   -1.85914
     4784.96   -1.87368
     4787.97   -1.88896
     4790.98   -1.90496
     4793.98   -1.92160
     4796.99   -1.93885
     4800.00   -1.95662
     4803.01   -1.97486
     4806.02   -1.99350
     4809.02   -2.01246
     4812.03   -2.03167
     4815.04   -2.05106
     4818.04   -2.07055
     4821.05   -2.09007
     4824.06   -2.10955
     4827.07   -2.12892
     4830.08   -2.14813
     4833.08   -2.16712
     4836.09   -2.18584
     4839.10   -2.20423
     4842.10   -2.22228
     4845.11   -2.23993
     4848.12   -2.25717
     4851.13   -2.27399
     4854.14   -2.29037
     4857.14   -2.30630
     4860.15   -2.32180
     4863.16   -2.33687
     4866.17   -2.35153
     4869.17   -2.36580
     4872.18   -2.37970
     4875.19   -2.39326
     4878.20   -2.40652
     4881.20   -2.41950
     4884.21   -2.43225
     4887.22   -2.44480
     4890.23   -2.45718
     4893.23   -2.46943
     4896.24   -2.48159
     4899.25   -2.49368
     4902.26   -2.50573
     4905.26   -2.51777
     4908.27   -2.52981
     4911.28   -2.54188
     4914.29   -2.55398
     4917.29   -2.56613
     4920.30   -2.57833
     4923.31   -2.59058
     4926.32   -2.60287
     4929.32   -2.61519
     4932.33   -2.62754
     4935.34   -2.63989
     4938.35   -2.65223
     4941.35   -2.66454
     4944.36   -2.67679
     4947.37   -2.68896
     4950.38   -2.70103
     4953.38   -2.71298
     4956.39   -2.72477
     4959.40   -2.73640
     4962.41   -2.74783
     4965.41   -2.75904
     4968.42   -2.77002
     4971.43   -2.78075
     4974.44   -2.79123
     4977.44   -2.80143
     4980.45   -2.81135
     4983.46   -2.82099
     4986.47   -2.83033
     4989.47   -2.83939
     4992.48   -2.84817
     4995.49   -2.85665
     4998.50   -2.86486
     5001.50   -2.87278
     5004.51   -2.88044
     5007.52   -2.88783
     5010.53   -2.89495
     5013.53   -2.90181
     5016.54   -2.90841
     5019.55   -2.91475
     5022.56   -2.92083
     5025.56   -2.92664
     5028.57   -2.93217
     5031.58   -2.93741
     5034.59   -2.94235
     5037.59   -2.94697
     5040.60   -2.95125
     5043.61   -2.95517
     5046.62   -2.95869
     5049.62   -2.96179
     5052.63   -2.96444
     5055.64   -2.96660
     5058.65   -2.96824
     5061.65   -2.96933
     5064.66   -2.96983
     5067.67   -2.96969
     5070.68   -2.96890
     5073.68   -2.96741
     5076.69   -2.96520
     5079.70   -2.96224
     5082.71   -2.95849
     5085.71   -2.95395
     5088.72   -2.94858
     5091.73   -2.94239
     5094.74   -2.93535
     5097.74   -2.92746
     5100.75   -2.91873
     5103.76   -2.90916
     5106.77   -2.89875
     5109.77   -2.88752
     5112.78   -2.87550
     5115.79   -2.86269
     5118.80   -2.84913
     5121.80   -2.83484
     5124.81   -2.81987
     5127.82   -2.80422
     5130.83   -2.78795
     5133.83   -2.77109
     5136.84   -2.75367
     5139.85   -2.73573
     5142.86   -2.71729
     5145.86   -2.69840
     5148.87   -2.67909
     5151.88   -2.65937
     5154.89   -2.63929
     5157.89   -2.61885
     5160.90   -2.59809
     5163.91   -2.57702
     5166.92   -2.55566
     5169.92   -2.53401
     5172.93   -2.51209
     5175.94   -2.48991
     5178.95   -2.46747
     5181.96   -2.44478
     5184.96   -2.42184
     5187.97   -2.39866
     5190.98   -2.37525
     5193.98   -2.35161
     5196.99   -2.32775
     5200.00   -2.30368
     5203.01   -2.27943
     5206.02   -2.25500
     5209.02   -2.23043
     5212.03   -2.20575
     5215.04   -2.18099
     5218.04   -2.15619
     5221.05   -2.13141
     5224.06   -2.10669
     5227.07   -2.08210
     5230.08   -2.05771
     5233.08   -2.03358
     5236.09   -2.00980
     5239.10   -1.98645
     5242.10   -1.96361
     5245.11   -1.94138
     5248.12   -1.91985
     5251.13   -1.89912
     5254.14   -1.87928
     5257.14   -1.86042
     5260.15   -1.84264
     5263.16   -1.82604
     5266.17   -1.81068
     5269.17   -1.79667
     5272.18   -1.78406
     5275.19   -1.77293
     5278.20   -1.76334
     5281.20   -1.75533
     5284.21   -1.74894
     5287.22   -1.74420
     5290.23   -1.74113
     5293.23   -1.73972
     5296.24   -1.73998
     5299.25   -1.74187
     5302.26   -1.74536
     5305.26   -1.75042
     5308.27   -1.75697
     5311.28   -1.76496
     5314.29   -1.77430
     5317.29   -1.78492
     5320.30   -1.79670
     5323.31   -1.80955
     5326.32   -1.82335
     5329.32   -1.83800
     5332.33   -1.85338
     5335.34   -1.86936
     5338.35   -1.88583
     5341.35   -1.90267
     5344.36   -1.91976
     5347.37   -1.93699
     5350.38   -1.95425
     5353.38   -1.97145
     5356.39   -1.98849
     5359.40   -2.00529
     5362.41   -2.02177
     5365.41   -2.03786
     5368.42   -2.05353
     5371.43   -2.06871
     5374.44   -2.08340
     5377.44   -2.09755
     5380.45   -2.11118
     5383.46   -2.12428
     5386.47   -2.13687
     5389.47   -2.14897
     5392.48   -2.16062
     5395.49   -2.17187
     5398.50   -2.18277
     5401.50   -2.19337
     5404.51   -2.20375
     5407.52   -2.21397
     5410.53   -2.22410
     5413.53   -2.23421
     5416.54   -2.24440
     5419.55   -2.25471
     5422.56   -2.26525
     5425.56   -2.27605
     5428.57   -2.28721
     5431.58   -2.29877
     5434.59   -2.31079
     5437.59   -2.32331
     5440.60   -2.33638
     5443.61   -2.35002
     5446.62   -2.36426
     5449.62   -2.37911
     5452.63   -2.39457
     5455.64   -2.41064
     5458.65   -2.42729
     5461.65   -2.44450
     5464.66   -2.46225
     5467.67   -2.48047
     5470.68   -2.49913
     5473.68   -2.51817
     5476.69   -2.53752
     5479.70   -2.55710
     5482.71   -2.57685
     5485.71   -2.59669
     5488.72   -2.61653
     5491.73   -2.63628
     5494.74   -2.65587
     5497.74   -2.67521
     5500.75   -2.69420
     5503.76   -2.71278
     5506.77   -2.73085
     5509.77   -2.74835
     5512.78   -2.76520
     5515.79   -2.78132
     5518.80   -2.79668
     5521.80   -2.81119
     5524.81   -2.82483
     5527.82   -2.83755
     5530.83   -2.84930
     5533.83   -2.86008
     5536.84   -2.86985
     5539.85   -2.87861
     5542.86   -2.88635
     5545.86   -2.89308
     5548.87   -2.89881
     5551.88   -2.90356
     5554.89   -2.90735
     5557.89   -2.91022
     5560.90   -2.91220
     5563.91   -2.91332
     5566.92   -2.91365
     5569.92   -2.91322
     5572.93   -2.91210
     5575.94   -2.91033
     5578.95   -2.90798
     5581.96   -2.90510
     5584.96   -2.90175
     5587.97   -2.89800
     5590.98   -2.89390
     5593.98   -2.88950
     5596.99   -2.88487
     5600.00   -2.88005
     5603.01   -2.87510
     5606.02   -2.87006
     5609.02   -2.86497
     5612.03   -2.85987
     5615.04   -2.85480
     5618.04   -2.84979
     5621.05   -2.84485
     5624.06   -2.84000
     5627.07   -2.83527
     5630.08   -2.83065
     5633.08   -2.82614
     5636.09   -2.82176
     5639.10   -2.81749
     5642.10   -2.81331
     5645.11   -2.80922
     5648.12   -2.80519
     5651.13   -2.80121
     5654.14   -2.79723
     5657.14   -2.79325
     5660.15   -2.78922
     5663.16   -2.78511
     5666.17   -2.78089
     5669.17   -2.77653
     5672.18   -2.77200
     5675.19   -2.76726
     5678.20   -2.76228
     5681.20   -2.75704
     5684.21   -2.75152
     5687.22   -2.74567
     5690.23   -2.73950
     5693.23   -2.73299
     5696.24   -2.72612
     5699.25   -2.71889
     5702.26   -2.71130
     5705.26   -2.70336
     5708.27   -2.69508
     5711.28   -2.68646
     5714.29   -2.67754
     5717.29   -2.66834
     5720.30   -2.65889
     5723.31   -2.64923
     5726.32   -2.63940
     5729.32   -2.62943
     5732.33   -2.61939
     5735.34   -2.60931
     5738.35   -2.59926
     5741.35   -2.58928
     5744.36   -2.57943
     5747.37   -2.56977
     5750.38   -2.56036
     5753.38   -2.55123
     5756.39   -2.54245
     5759.40   -2.53407
     5762.41   -2.52613
     5765.41   -2.51867
     5768.42   -2.51172
     5771.43   -2.50533
     5774.44   -2.49952
     5777.44   -2.49430
     5780.45   -2.48970
     5783.46   -2.48571
     5786.47   -2.48234
     5789.47   -2.47958
     5792.48   -2.47742
     5795.49   -2.47585
     5798.50   -2.47483
     5801.50   -2.47433
     5804.51   -2.47432
     5807.52   -2.47475
     5810.53   -2.47559
     5813.53   -2.47677
     5816.54   -2.47825
     5819.55   -2.47996
     5822.56   -2.48186
     5825.56   -2.48389
     5828.57   -2.48598
     5831.58   -2.48808
     5834.59   -2.49014
     5837.59   -2.49210
     5840.60   -2.49391
     5843.61   -2.49553
     5846.62   -2.49691
     5849.62   -2.49802
     5852.63   -2.49882
     5855.64   -2.49930
     5858.65   -2.49942
     5861.65   -2.49918
     5864.66   -2.49857
     5867.67   -2.49758
     5870.68   -2.49623
     5873.68   -2.49452
     5876.69   -2.49247
     5879.70   -2.49010
     5882.71   -2.48744
     5885.71   -2.48451
     5888.72   -2.48137
     5891.73   -2.47803
     5894.74   -2.47454
     5897.74   -2.47095
     5900.75   -2.46729
     5903.76   -2.46360
     5906.77   -2.45994
     5909.77   -2.45634
     5912.78   -2.45284
     5915.79   -2.44948
     5918.80   -2.44629
     5921.80   -2.44330
     5924.81   -2.44053
     5927.82   -2.43802
     5930.83   -2.43577
     5933.83   -2.43379
     5936.84   -2.43210
     5939.85   -2.43070
     5942.86   -2.42958
     5945.86   -2.42873
     5948.87   -2.42815
     5951.88   -2.42781
     5954.89   -2.42769
     5957.89   -2.42778
     5960.90   -2.42803
     5963.91   -2.42843
     5966.92   -2.42894
     5969.92   -2.42952
     5972.93   -2.43014
     5975.94   -2.43077
     5978.95   -2.43136
     5981.95   -2.43190
     5984.96   -2.43234
     5987.97   -2.43265
     5990.98   -2.43281
     5993.98   -2.43279
     5996.99   -2.43257
     6000.00   -2.43213
     6003.01   -2.43146
     6006.02   -2.43054
     6009.02   -2.42936
     6012.03   -2.42793
     6015.04   -2.42625
     6018.04   -2.42431
     6021.05   -2.42213
     6024.06   -2.41972
     6027.07   -2.41709
     6030.08   -2.41426
     6033.08   -2.41126
     6036.09   -2.40809
     6039.10   -2.40478
     6042.10   -2.40137
     6045.11   -2.39787
     6048.12   -2.39430
     6051.13   -2.39070
     6054.14   -2.38709
     6057.14   -2.38348
     6060.15   -2.37991
     6063.16   -2.37639
     6066.17   -2.37294
     6069.17   -2.36958
     6072.18   -2.36631
     6075.19   -2.36316
     6078.20   -2.36013
     6081.20   -2.35722
     6084.21   -2.35444
     6087.22   -2.35180
     6090.23   -2.34928
     6093.23   -2.34689
     6096.24   -2.34462
     6099.25   -2.34247
     6102.26   -2.34041
     6105.26   -2.33846
     6108.27   -2.33659
     6111.28   -2.33480
     6114.29   -2.33307
     6117.29   -2.33139
     6120.30   -2.32976
     6123.31   -2.32816
     6126.32   -2.32658
     6129.32   -2.32503
     6132.33   -2.32348
     6135.34   -2.32194
     6138.35   -2.32041
     6141.35   -2.31888
     6144.36   -2.31736
     6147.37   -2.31585
     6150.38   -2.31435
     6153.38   -2.31287
     6156.39   -2.31142
     6159.40   -2.31001
     6162.41   -2.30865
     6165.41   -2.30736
     6168.42   -2.30614
     6171.43   -2.30501
     6174.44   -2.30399
     6177.44   -2.30308
     6180.45   -2.30231
     6183.46   -2.30169
     6186.47   -2.30123
     6189.47   -2.30094
     6192.48   -2.30084
     6195.49   -2.30092
     6198.50   -2.30121
     6201.50   -2.30170
     6204.51   -2.30240
     6207.52   -2.30331
     6210.53   -2.30443
     6213.53   -2.30575
     6216.54   -2.30727
     6219.55   -2.30899
     6222.56   -2.31088
     6225.56   -2.31294
     6228.57   -2.31515
     6231.58   -2.31750
     6234.59   -2.31996
     6237.59   -2.32253
     6240.60   -2.32517
     6243.61   -2.32786
     6246.62   -2.33059
     6249.62   -2.33332
     6252.63   -2.33604
     6255.64   -2.33872
     6258.65   -2.34133
     6261.65   -2.34385
     6264.66   -2.34626
     6267.67   -2.34854
     6270.68   -2.35067
     6273.68   -2.35262
     6276.69   -2.35438
     6279.70   -2.35593
     6282.71   -2.35726
     6285.71   -2.35835
     6288.72   -2.35920
     6291.73   -2.35978
     6294.74   -2.36011
     6297.74   -2.36016
     6300.75   -2.35994
     6303.76   -2.35945
     6306.77   -2.35868
     6309.77   -2.35763
     6312.78   -2.35631
     6315.79   -2.35473
     6318.80   -2.35289
     6321.80   -2.35079
     6324.81   -2.34845
     6327.82   -2.34587
     6330.83   -2.34307
     6333.83   -2.34005
     6336.84   -2.33683
     6339.85   -2.33342
     6342.86   -2.32982
     6345.86   -2.32606
     6348.87   -2.32215
     6351.88   -2.31809
     6354.89   -2.31391
     6357.89   -2.30961
     6360.90   -2.30521
     6363.91   -2.30072
     6366.92   -2.29615
     6369.92   -2.29152
     6372.93   -2.28684
     6375.94   -2.28211
     6378.95   -2.27736
     6381.95   -2.27259
     6384.96   -2.26781
     6387.97   -2.26304
     6390.98   -2.25828
     6393.98   -2.25355
     6396.99   -2.24886
     6400.00   -2.24421
     6403.01   -2.23962
     6406.02   -2.23509
     6409.02   -2.23063
     6412.03   -2.22626
     6415.04   -2.22198
     6418.04   -2.21780
     6421.05   -2.21372
     6424.06   -2.20975
     6427.07   -2.20590
     6430.08   -2.20218
     6433.08   -2.19858
     6436.09   -2.19511
     6439.10   -2.19178
     6442.10   -2.18859
     6445.11   -2.18553
     6448.12   -2.18262
     6451.13   -2.17984
     6454.14   -2.17720
     6457.14   -2.17470
     6460.15   -2.17232
     6463.16   -2.17008
     6466.17   -2.16795
     6469.17   -2.16594
     6472.18   -2.16404
     6475.19   -2.16223
     6478.20   -2.16052
     6481.20   -2.15889
     6484.21   -2.15732
     6487.22   -2.15582
     6490.23   -2.15436
     6493.23   -2.15293
     6496.24   -2.15152
     6499.25   -2.15012
     6502.26   -2.14872
     6505.26   -2.14729
     6508.27   -2.14583
     6511.28   -2.14433
     6514.29   -2.14277
     6517.29   -2.14114
     6520.30   -2.13943
     6523.31   -2.13763
     6526.32   -2.13572
     6529.32   -2.13370
     6532.33   -2.13156
     6535.34   -2.12929
     6538.35   -2.12689
     6541.35   -2.12434
     6544.36   -2.12165
     6547.37   -2.11881
     6550.38   -2.11582
     6553.38   -2.11268
     6556.39   -2.10939
     6559.40   -2.10595
     6562.41   -2.10236
     6565.41   -2.09863
     6568.42   -2.09476
     6571.43   -2.09076
     6574.44   -2.08664
     6577.44   -2.08239
     6580.45   -2.07803
     6583.46   -2.07358
     6586.47   -2.06903
     6589.47   -2.06439
     6592.48   -2.05969
     6595.49   -2.05492
     6598.50   -2.05011
     6601.50   -2.04525
     6604.51   -2.04037
     6607.52   -2.03547
     6610.53   -2.03057
     6613.53   -2.02566
     6616.54   -2.02078
     6619.55   -2.01591
     6622.56   -2.01108
     6625.56   -2.00630
     6628.57   -2.00156
     6631.58   -1.99688
     6634.59   -1.99226
     6637.59   -1.98772
     6640.60   -1.98325
     6643.61   -1.97887
     6646.62   -1.97456
     6649.62   -1.97035
     6652.63   -1.96622
     6655.64   -1.96218
     6658.65   -1.95823
     6661.65   -1.95437
     6664.66   -1.95060
     6667.67   -1.94691
     6670.68   -1.94330
     6673.68   -1.93976
     6676.69   -1.93630
     6679.70   -1.93290
     6682.71   -1.92957
     6685.71   -1.92628
     6688.72   -1.92303
     6691.73   -1.91982
     6694.74   -1.91664
     6697.74   -1.91348
     6700.75   -1.91032
     6703.76   -1.90716
     6706.77   -1.90399
     6709.77   -1.90079
     6712.78   -1.89757
     6715.79   -1.89430
     6718.80   -1.89099
     6721.80   -1.88761
     6724.81   -1.88416
     6727.82   -1.88064
     6730.83   -1.87704
     6733.83   -1.87334
     6736.84   -1.86955
     6739.85   -1.86565
     6742.86   -1.86165
     6745.86   -1.85754
     6748.87   -1.85332
     6751.88   -1.84899
     6754.89   -1.84455
     6757.89   -1.83999
     6760.90   -1.83533
     6763.91   -1.83057
     6766.92   -1.82571
     6769.92   -1.82075
     6772.93   -1.81572
     6775.94   -1.81060
     6778.95   -1.80543
     6781.95   -1.80020
     6784.96   -1.79493
     6787.97   -1.78963
     6790.98   -1.78432
     6793.98   -1.77900
     6796.99   -1.77370
     6800.00   -1.76843
     6803.01   -1.76320
     6806.02   -1.75803
     6809.02   -1.75293
     6812.03   -1.74792
     6815.04   -1.74302
     6818.04   -1.73823
     6821.05   -1.73357
     6824.06   -1.72906
     6827.07   -1.72469
     6830.08   -1.72049
     6833.08   -1.71646
     6836.09   -1.71261
     6839.10   -1.70894
     6842.10   -1.70546
     6845.11   -1.70217
     6848.12   -1.69906
     6851.13   -1.69614
     6854.14   -1.69339
     6857.14   -1.69082
     6860.15   -1.68842
     6863.16   -1.68617
     6866.17   -1.68406
     6869.17   -1.68207
     6872.18   -1.68020
     6875.19   -1.67842
     6878.20   -1.67671
     6881.20   -1.67504
     6884.21   -1.67340
     6887.22   -1.67176
     6890.23   -1.67010
     6893.23   -1.66838
     6896.24   -1.66658
     6899.25   -1.66468
     6902.26   -1.66263
     6905.26   -1.66042
     6908.27   -1.65801
     6911.28   -1.65538
     6914.29   -1.65249
     6917.29   -1.64933
     6920.30   -1.64586
     6923.31   -1.64206
     6926.32   -1.63790
     6929.32   -1.63336
     6932.33   -1.62843
     6935.34   -1.62308
     6938.35   -1.61729
     6941.35   -1.61106
     6944.36   -1.60436
     6947.37   -1.59719
     6950.38   -1.58954
     6953.38   -1.58140
     6956.39   -1.57278
     6959.40   -1.56367
     6962.41   -1.55407
     6965.41   -1.54398
     6968.42   -1.53342
     6971.43   -1.52239
     6974.44   -1.51090
     6977.44   -1.49896
     6980.45   -1.48658
     6983.46   -1.47379
     6986.47   -1.46059
     6989.47   -1.44699
     6992.48   -1.43303
     6995.49   -1.41870
     6998.50   -1.40403
     7001.50   -1.38904
     7004.51   -1.37374
     7007.52   -1.35813
     7010.53   -1.34225
     7013.53   -1.32609
     7016.54   -1.30966
     7019.55   -1.29298
     7022.56   -1.27604
     7025.56   -1.25885
     7028.57   -1.24141
     7031.58   -1.22372
     7034.59   -1.20576
     7037.59   -1.18754
     7040.60   -1.16903
     7043.61   -1.15024
     7046.62   -1.13113
     7049.62   -1.11169
     7052.63   -1.09190
     7055.64   -1.07174
     7058.65   -1.05119
     7061.65   -1.03021
     7064.66   -1.00879
     7067.67  -0.986910
     7070.68  -0.964533
     7073.68  -0.941641
     7076.69  -0.918214
     7079.70  -0.894233
     7082.71  -0.869682
     7085.71  -0.844550
     7088.72  -0.818830
     7091.73  -0.792518
     7094.74  -0.765618
     7097.74  -0.738136
     7100.75  -0.710089
     7103.76  -0.681498
     7106.77  -0.652392
     7109.77  -0.622807
     7112.78  -0.592787
     7115.79  -0.562383
     7118.80  -0.531655
     7121.80  -0.500671
     7124.81  -0.469504
     7127.82  -0.438236
     7130.83  -0.406955
     7133.83  -0.375757
     7136.84  -0.344742
     7139.85  -0.314014
     7142.86  -0.283684
     7145.86  -0.253865
     7148.87  -0.224669
     7151.88  -0.196216
     7154.89  -0.168619
     7157.89  -0.141995
     7160.90  -0.116455
     7163.91   -9.21092E-02
     7166.92   -6.90624E-02
     7169.92   -4.74103E-02
     7172.93   -2.72454E-02
     7175.94   -8.64891E-03
     7178.95    8.30492E-03
     7181.95    2.35555E-02
     7184.96    3.70522E-02
     7187.97    4.87566E-02
     7190.98    5.86446E-02
     7193.98    6.67045E-02
     7196.99    7.29419E-02
     7200.00    7.73730E-02
     7203.01    8.00317E-02
     7206.02    8.09657E-02
     7209.02    8.02370E-02
     7212.03    7.79242E-02
     7215.04    7.41170E-02
     7218.04    6.89194E-02
     7221.05    6.24486E-02
     7224.06    5.48301E-02
     7227.07    4.62044E-02
     7230.08    3.67167E-02
     7233.08    2.65227E-02
     7236.09    1.57828E-02
     7239.10    4.66095E-03
     7242.10   -6.67168E-03
     7245.11   -1.80496E-02
     7248.12   -2.93002E-02
     7251.13   -4.02590E-02
     7254.14   -5.07624E-02
     7257.14   -6.06540E-02
     7260.15   -6.97837E-02
     7263.16   -7.80092E-02
     7266.17   -8.52005E-02
     7269.17   -9.12379E-02
     7272.18   -9.60150E-02
     7275.19   -9.94388E-02
     7278.20   -1.01429E-01
     7281.20   -1.01925E-01
     7284.21   -1.00879E-01
     7287.22   -9.82586E-02
     7290.23   -9.40511E-02
     7293.23   -8.82577E-02
     7296.24   -8.08959E-02
     7299.25   -7.19987E-02
     7302.26   -6.16152E-02
     7305.26   -4.98079E-02
     7308.27   -3.66521E-02
     7311.28   -2.22369E-02
     7314.29   -6.66020E-03
     7317.29    9.96794E-03
     7320.30    2.75316E-02
     7323.31    4.59060E-02
     7326.32    6.49641E-02
     7329.32    8.45720E-02
     7332.33    1.04597E-01
     7335.34   0.124902
     7338.35   0.145355
     7341.35   0.165826
     7344.36   0.186187
     7347.37   0.206317
     7350.38   0.226102
     7353.38   0.245433
     7356.39   0.264214
     7359.40   0.282354
     7362.41   0.299776
     7365.41   0.316411
     7368.42   0.332202
     7371.43   0.347103
     7374.44   0.361078
     7377.44   0.374104
     7380.45   0.386167
     7383.46   0.397264
     7386.47   0.407400
     7389.47   0.416590
     7392.48   0.424858
     7395.49   0.432233
     7398.50   0.438752
     7401.50   0.444455
     7404.51   0.449388
     7407.52   0.453600
     7410.53   0.457141
     7413.53   0.460061
     7416.54   0.462412
     7419.55   0.464244
     7422.56   0.465605
     7425.56   0.466539
     7428.57   0.467089
     7431.58   0.467294
     7434.59   0.467184
     7437.59   0.466788
     7440.60   0.466132
     7443.61   0.465231
     7446.62   0.464098
     7449.62   0.462739
     7452.63   0.461158
     7455.64   0.459353
     7458.65   0.457315
     7461.65   0.455034
     7464.66   0.452496
     7467.67   0.449684
     7470.68   0.446580
     7473.68   0.443164
     7476.69   0.439414
     7479.70   0.435311
     7482.71   0.430835
     7485.71   0.425967
     7488.72   0.420692
     7491.73   0.414994
     7494.74   0.408865
     7497.74   0.402296
     7500.75   0.395285
     7503.76   0.387831
     7506.77   0.379941
     7509.77   0.371624
     7512.78   0.362893
     7515.79   0.353765
     7518.80   0.344264
     7521.80   0.334413
     7524.81   0.324243
     7527.82   0.313785
     7530.83   0.303071
     7533.83   0.292138
     7536.84   0.281022
     7539.85   0.269760
     7542.86   0.258390
     7545.86   0.246947
     7548.87   0.235466
     7551.88   0.223979
     7554.89   0.212518
     7557.89   0.201108
     7560.90   0.189773
     7563.91   0.178531
     7566.92   0.167399
     7569.92   0.156386
     7572.93   0.145498
     7575.94   0.134735
     7578.95   0.124094
     7581.95   0.113565
     7584.96    1.03135E-01
     7587.97    9.27868E-02
     7590.98    8.24984E-02
     7593.98    7.22444E-02
     7596.99    6.19980E-02
     7600.00    5.17268E-02
     7603.01    4.14003E-02
     7606.02    3.09837E-02
     7609.02    2.04436E-02
     7612.03    9.74514E-03
     7615.04   -1.14451E-03
     7618.04   -1.22578E-02
     7621.05   -2.36257E-02
     7624.06   -3.52750E-02
     7627.07   -4.72308E-02
     7630.08   -5.95143E-02
     7633.08   -7.21434E-02
     7636.09   -8.51297E-02
     7639.10   -9.84832E-02
     7642.10  -0.112208
     7645.11  -0.126303
     7648.12  -0.140763
     7651.13  -0.155579
     7654.14  -0.170736
     7657.14  -0.186214
     7660.15  -0.201993
     7663.16  -0.218047
     7666.17  -0.234346
     7669.17  -0.250860
     7672.18  -0.267554
     7675.19  -0.284394
     7678.20  -0.301346
     7681.20  -0.318375
     7684.21  -0.335445
     7687.22  -0.352523
     7690.23  -0.369576
     7693.23  -0.386574
     7696.24  -0.403491
     7699.25  -0.420301
     7702.26  -0.436986
     7705.26  -0.453528
     7708.27  -0.469913
     7711.28  -0.486136
     7714.29  -0.502190
     7717.29  -0.518075
     7720.30  -0.533798
     7723.31  -0.549364
     7726.32  -0.564788
     7729.32  -0.580084
     7732.33  -0.595271
     7735.34  -0.610370
     7738.35  -0.625406
     7741.35  -0.640401
     7744.36  -0.655384
     7747.37  -0.670380
     7750.38  -0.685414
     7753.38  -0.700513
     7756.39  -0.715700
     7759.40  -0.730996
     7762.41  -0.746422
     7765.41  -0.761992
     7768.42  -0.777718
     7771.43  -0.793611
     7774.44  -0.809672
     7777.44  -0.825901
     7780.45  -0.842293
     7783.46  -0.858838
     7786.47  -0.875518
     7789.47  -0.892313
     7792.48  -0.909199
     7795.49  -0.926144
     7798.50  -0.943113
     7801.50  -0.960069
     7804.51  -0.976969
     7807.52  -0.993766
     7810.53   -1.01041
     7813.53   -1.02686
     7816.54   -1.04306
     7819.55   -1.05895
     7822.56   -1.07449
     7825.56   -1.08962
     7828.57   -1.10429
     7831.58   -1.11846
     7834.59   -1.13207
     7837.59   -1.14509
     7840.60   -1.15749
     7843.61   -1.16921
     7846.62   -1.18024
     7849.62   -1.19056
     7852.63   -1.20014
     7855.64   -1.20897
     7858.65   -1.21706
     7861.65   -1.22439
     7864.66   -1.23098
     7867.67   -1.23683
     7870.68   -1.24198
     7873.68   -1.24644
     7876.69   -1.25025
     7879.70   -1.25345
     7882.71   -1.25607
     7885.71   -1.25817
     7888.72   -1.25979
     7891.73   -1.26099
     7894.74   -1.26183
     7897.74   -1.26236
     7900.75   -1.26266
     7903.76   -1.26277
     7906.77   -1.26277
     7909.77   -1.26272
     7912.78   -1.26267
     7915.79   -1.26268
     7918.80   -1.26282
     7921.80   -1.26314
     7924.81   -1.26369
     7927.82   -1.26451
     7930.83   -1.26565
     7933.83   -1.26714
     7936.84   -1.26902
     7939.85   -1.27131
     7942.86   -1.27403
     7945.86   -1.27721
     7948.87   -1.28084
     7951.88   -1.28494
     7954.89   -1.28950
     7957.89   -1.29451
     7960.90   -1.29996
     7963.91   -1.30584
     7966.92   -1.31211
     7969.92   -1.31876
     7972.93   -1.32575
     7975.94   -1.33305
     7978.95   -1.34062
     7981.95   -1.34842
     7984.96   -1.35640
     7987.97   -1.36454
     7990.98   -1.37277
     7993.98   -1.38107
     7996.99   -1.38938
     8000.00   -1.39767
     8003.01   -1.40589
     8006.02   -1.41400
     8009.02   -1.42198
     8012.03   -1.42978
     8015.04   -1.43738
     8018.04   -1.44475
     8021.05   -1.45187
     8024.06   -1.45872
     8027.07   -1.46529
     8030.08   -1.47158
     8033.08   -1.47757
     8036.09   -1.48327
     8039.10   -1.48869
     8042.10   -1.49384
     8045.11   -1.49873
     8048.12   -1.50337
     8051.13   -1.50780
     8054.14   -1.51204
     8057.14   -1.51612
     8060.15   -1.52006
     8063.16   -1.52391
     8066.17   -1.52770
     8069.17   -1.53147
     8072.18   -1.53526
     8075.19   -1.53910
     8078.20   -1.54303
     8081.20   -1.54710
     8084.21   -1.55134
     8087.22   -1.55579
     8090.23   -1.56048
     8093.23   -1.56544
     8096.24   -1.57071
     8099.25   -1.57632
     8102.26   -1.58228
     8105.26   -1.58862
     8108.27   -1.59536
     8111.28   -1.60252
     8114.29   -1.61012
     8117.29   -1.61815
     8120.30   -1.62663
     8123.31   -1.63558
     8126.32   -1.64498
     8129.32   -1.65484
     8132.33   -1.66517
     8135.34   -1.67596
     8138.35   -1.68720
     8141.35   -1.69891
     8144.36   -1.71106
     8147.37   -1.72367
     8150.38   -1.73672
     8153.38   -1.75022
     8156.39   -1.76416
     8159.40   -1.77855
     8162.41   -1.79339
     8165.41   -1.80868
     8168.42   -1.82443
     8171.43   -1.84065
     8174.44   -1.85734
     8177.44   -1.87451
     8180.45   -1.89219
     8183.46   -1.91038
     8186.47   -1.92910
     8189.47   -1.94837
     8192.48   -1.96820
     8195.49   -1.98862
     8198.50   -2.00962
     8201.50   -2.03124
     8204.51   -2.05348
     8207.52   -2.07635
     8210.53   -2.09987
     8213.53   -2.12403
     8216.54   -2.14883
     8219.55   -2.17428
     8222.56   -2.20035
     8225.56   -2.22703
     8228.57   -2.25431
     8231.58   -2.28214
     8234.59   -2.31050
     8237.59   -2.33934
     8240.60   -2.36861
     8243.61   -2.39825
     8246.62   -2.42819
     8249.62   -2.45836
     8252.63   -2.48869
     8255.64   -2.51908
     8258.65   -2.54945
     8261.65   -2.57970
     8264.66   -2.60973
     8267.67   -2.63944
     8270.68   -2.66871
     8273.68   -2.69745
     8276.69   -2.72554
     8279.70   -2.75288
     8282.71   -2.77936
     8285.71   -2.80488
     8288.72   -2.82935
     8291.73   -2.85267
     8294.74   -2.87475
     8297.74   -2.89553
     8300.75   -2.91493
     8303.76   -2.93290
     8306.77   -2.94939
     8309.77   -2.96435
     8312.78   -2.97778
     8315.79   -2.98965
     8318.80   -2.99998
     8321.80   -3.00876
     8324.81   -3.01604
     8327.82   -3.02185
     8330.83   -3.02625
     8333.83   -3.02930
     8336.84   -3.03108
     8339.85   -3.03168
     8342.86   -3.03119
     8345.86   -3.02972
     8348.87   -3.02739
     8351.88   -3.02432
     8354.89   -3.02063
     8357.89   -3.01646
     8360.90   -3.01192
     8363.91   -3.00717
     8366.92   -3.00232
     8369.92   -2.99751
     8372.93   -2.99286
     8375.94   -2.98849
     8378.95   -2.98452
     8381.96   -2.98104
     8384.96   -2.97816
     8387.97   -2.97597
     8390.98   -2.97453
     8393.99   -2.97391
     8396.99   -2.97416
     8400.00   -2.97532
     8403.01   -2.97741
     8406.01   -2.98046
     8409.02   -2.98444
     8412.03   -2.98936
     8415.04   -2.99518
     8418.04   -3.00187
     8421.05   -3.00938
     8424.06   -3.01765
     8427.07   -3.02660
     8430.08   -3.03617
     8433.08   -3.04627
     8436.09   -3.05681
     8439.10   -3.06770
     8442.11   -3.07884
     8445.11   -3.09012
     8448.12   -3.10147
     8451.13   -3.11276
     8454.14   -3.12392
     8457.14   -3.13485
     8460.15   -3.14546
     8463.16   -3.15566
     8466.17   -3.16539
     8469.17   -3.17458
     8472.18   -3.18316
     8475.19   -3.19109
     8478.20   -3.19832
     8481.20   -3.20482
     8484.21   -3.21056
     8487.22   -3.21554
     8490.23   -3.21975
     8493.23   -3.22319
     8496.24   -3.22588
     8499.25   -3.22783
     8502.26   -3.22907
     8505.26   -3.22964
     8508.27   -3.22958
     8511.28   -3.22893
     8514.29   -3.22774
     8517.29   -3.22607
     8520.30   -3.22396
     8523.31   -3.22148
     8526.32   -3.21867
     8529.32   -3.21559
     8532.33   -3.21230
     8535.34   -3.20884
     8538.35   -3.20526
     8541.35   -3.20161
     8544.36   -3.19792
     8547.37   -3.19422
     8550.38   -3.19056
     8553.38   -3.18694
     8556.39   -3.18339
     8559.40   -3.17993
     8562.41   -3.17655
     8565.41   -3.17326
     8568.42   -3.17006
     8571.43   -3.16695
     8574.44   -3.16390
     8577.44   -3.16090
     8580.45   -3.15794
     8583.46   -3.15500
     8586.47   -3.15206
     8589.47   -3.14909
     8592.48   -3.14607
     8595.49   -3.14298
     8598.50   -3.13980
     8601.50   -3.13650
     8604.51   -3.13309
     8607.52   -3.12953
     8610.53   -3.12583
     8613.53   -3.12197
     8616.54   -3.11796
     8619.55   -3.11380
     8622.56   -3.10949
     8625.56   -3.10506
     8628.57   -3.10052
     8631.58   -3.09589
     8634.59   -3.09120
     8637.59   -3.08649
     8640.60   -3.08179
     8643.61   -3.07713
     8646.62   -3.07256
     8649.62   -3.06814
     8652.63   -3.06389
     8655.64   -3.05988
     8658.65   -3.05615
     8661.65   -3.05275
     8664.66   -3.04972
     8667.67   -3.04711
     8670.68   -3.04497
     8673.68   -3.04333
     8676.69   -3.04223
     8679.70   -3.04170
     8682.71   -3.04176
     8685.71   -3.04245
     8688.72   -3.04376
     8691.73   -3.04572
     8694.74   -3.04831
     8697.74   -3.05155
     8700.75   -3.05540
     8703.76   -3.05986
     8706.77   -3.06491
     8709.77   -3.07049
     8712.78   -3.07658
     8715.79   -3.08313
     8718.80   -3.09009
     8721.80   -3.09740
     8724.81   -3.10499
     8727.82   -3.11281
     8730.83   -3.12077
     8733.83   -3.12881
     8736.84   -3.13684
     8739.85   -3.14479
     8742.86   -3.15258
     8745.86   -3.16013
     8748.87   -3.16736
     8751.88   -3.17419
     8754.89   -3.18054
     8757.89   -3.18634
     8760.90   -3.19151
     8763.91   -3.19599
     8766.92   -3.19970
     8769.92   -3.20260
     8772.93   -3.20462
     8775.94   -3.20572
     8778.95   -3.20585
     8781.96   -3.20497
     8784.96   -3.20304
     8787.97   -3.20005
     8790.98   -3.19596
     8793.99   -3.19077
     8796.99   -3.18446
     8800.00   -3.17704
     8803.01   -3.16850
     8806.01   -3.15885
     8809.02   -3.14811
     8812.03   -3.13629
     8815.04   -3.12341
     8818.04   -3.10951
     8821.05   -3.09461
     8824.06   -3.07875
     8827.07   -3.06196
     8830.08   -3.04429
     8833.08   -3.02578
     8836.09   -3.00647
     8839.10   -2.98640
     8842.11   -2.96564
     8845.11   -2.94421
     8848.12   -2.92218
     8851.13   -2.89960
     8854.13   -2.87650
     8857.14   -2.85295
     8860.15   -2.82899
     8863.16   -2.80467
     8866.17   -2.78003
     8869.17   -2.75514
     8872.18   -2.73002
     8875.19   -2.70474
     8878.20   -2.67933
     8881.20   -2.65383
     8884.21   -2.62830
     8887.22   -2.60278
     8890.23   -2.57729
     8893.23   -2.55190
     8896.24   -2.52663
     8899.25   -2.50153
     8902.26   -2.47663
     8905.26   -2.45197
     8908.27   -2.42760
     8911.28   -2.40354
     8914.29   -2.37983
     8917.29   -2.35652
     8920.30   -2.33363
     8923.31   -2.31120
     8926.32   -2.28926
     8929.32   -2.26786
     8932.33   -2.24702
     8935.34   -2.22677
     8938.35   -2.20715
     8941.35   -2.18820
     8944.36   -2.16993
     8947.37   -2.15238
     8950.38   -2.13558
     8953.38   -2.11955
     8956.39   -2.10433
     8959.40   -2.08992
     8962.41   -2.07637
     8965.41   -2.06368
     8968.42   -2.05187
     8971.43   -2.04097
     8974.44   -2.03097
     8977.44   -2.02191
     8980.45   -2.01378
     8983.46   -2.00658
     8986.47   -2.00033
     8989.47   -1.99503
     8992.48   -1.99066
     8995.49   -1.98724
     8998.50   -1.98474
     9001.50   -1.98315
     9004.51   -1.98247
     9007.52   -1.98268
     9010.53   -1.98375
     9013.53   -1.98567
     9016.54   -1.98841
     9019.55   -1.99194
     9022.56   -1.99625
     9025.56   -2.00129
     9028.57   -2.00703
     9031.58   -2.01345
     9034.59   -2.02050
     9037.59   -2.02815
     9040.60   -2.03636
     9043.61   -2.04510
     9046.62   -2.05433
     9049.62   -2.06401
     9052.63   -2.07410
     9055.64   -2.08456
     9058.65   -2.09536
     9061.65   -2.10646
     9064.66   -2.11783
     9067.67   -2.12943
     9070.68   -2.14122
     9073.68   -2.15319
     9076.69   -2.16528
     9079.70   -2.17749
     9082.71   -2.18978
     9085.71   -2.20212
     9088.72   -2.21449
     9091.73   -2.22688
     9094.74   -2.23926
     9097.74   -2.25161
     9100.75   -2.26392
     9103.76   -2.27618
     9106.77   -2.28837
     9109.77   -2.30049
     9112.78   -2.31252
     9115.79   -2.32446
     9118.80   -2.33630
     9121.80   -2.34805
     9124.81   -2.35969
     9127.82   -2.37123
     9130.83   -2.38267
     9133.83   -2.39400
     9136.84   -2.40524
     9139.85   -2.41638
     9142.86   -2.42744
     9145.86   -2.43840
     9148.87   -2.44929
     9151.88   -2.46010
     9154.89   -2.47085
     9157.89   -2.48153
     9160.90   -2.49217
     9163.91   -2.50276
     9166.92   -2.51331
     9169.92   -2.52384
     9172.93   -2.53435
     9175.94   -2.54485
     9178.95   -2.55536
     9181.96   -2.56587
     9184.96   -2.57641
     9187.97   -2.58697
     9190.98   -2.59758
     9193.99   -2.60823
     9196.99   -2.61895
     9200.00   -2.62973
     9203.01   -2.64058
     9206.01   -2.65152
     9209.02   -2.66255
     9212.03   -2.67368
     9215.04   -2.68492
     9218.04   -2.69627
     9221.05   -2.70773
     9224.06   -2.71930
     9227.07   -2.73100
     9230.08   -2.74282
     9233.08   -2.75475
     9236.09   -2.76680
     9239.10   -2.77895
     9242.11   -2.79121
     9245.11   -2.80357
     9248.12   -2.81600
     9251.13   -2.82850
     9254.13   -2.84106
     9257.14   -2.85364
     9260.15   -2.86625
     9263.16   -2.87884
     9266.17   -2.89141
     9269.17   -2.90391
     9272.18   -2.91633
     9275.19   -2.92864
     9278.20   -2.94080
     9281.20   -2.95278
     9284.21   -2.96456
     9287.22   -2.97609
     9290.23   -2.98735
     9293.23   -2.99830
     9296.24   -3.00892
     9299.25   -3.01917
     9302.26   -3.02902
     9305.26   -3.03846
     9308.27   -3.04746
     9311.28   -3.05600
     9314.29   -3.06406
     9317.29   -3.07162
     9320.30   -3.07869
     9323.31   -3.08526
     9326.32   -3.09133
     9329.32   -3.09691
     9332.33   -3.10200
     9335.34   -3.10662
     9338.35   -3.11080
     9341.35   -3.11455
     9344.36   -3.11792
     9347.37   -3.12093
     9350.38   -3.12362
     9353.38   -3.12605
     9356.39   -3.12824
     9359.40   -3.13026
     9362.41   -3.13214
     9365.41   -3.13395
     9368.42   -3.13574
     9371.43   -3.13755
     9374.44   -3.13944
     9377.44   -3.14145
     9380.45   -3.14364
     9383.46   -3.14603
     9386.47   -3.14868
     9389.47   -3.15161
     9392.48   -3.15484
     9395.49   -3.15839
     9398.50   -3.16229
     9401.50   -3.16652
     9404.51   -3.17109
     9407.52   -3.17597
     9410.53   -3.18116
     9413.53   -3.18662
     9416.54   -3.19230
     9419.55   -3.19817
     9422.56   -3.20416
     9425.56   -3.21022
     9428.57   -3.21627
     9431.58   -3.22225
     9434.59   -3.22806
     9437.59   -3.23363
     9440.60   -3.23887
     9443.61   -3.24370
     9446.62   -3.24801
     9449.62   -3.25174
     9452.63   -3.25479
     9455.64   -3.25709
     9458.65   -3.25856
     9461.65   -3.25913
     9464.66   -3.25875
     9467.67   -3.25735
     9470.68   -3.25491
     9473.68   -3.25140
     9476.69   -3.24679
     9479.70   -3.24109
     9482.71   -3.23429
     9485.71   -3.22643
     9488.72   -3.21754
     9491.73   -3.20767
     9494.74   -3.19688
     9497.74   -3.18524
     9500.75   -3.17284
     9503.76   -3.15977
     9506.77   -3.14614
     9509.77   -3.13206
     9512.78   -3.11765
     9515.79   -3.10304
     9518.80   -3.08835
     9521.80   -3.07370
     9524.81   -3.05924
     9527.82   -3.04507
     9530.83   -3.03132
     9533.83   -3.01811
     9536.84   -3.00553
     9539.85   -2.99369
     9542.86   -2.98266
     9545.86   -2.97252
     9548.87   -2.96333
     9551.88   -2.95511
     9554.89   -2.94791
     9557.89   -2.94172
     9560.90   -2.93654
     9563.91   -2.93234
     9566.92   -2.92909
     9569.92   -2.92672
     9572.93   -2.92517
     9575.94   -2.92434
     9578.95   -2.92414
     9581.96   -2.92447
     9584.96   -2.92520
     9587.97   -2.92622
     9590.98   -2.92738
     9593.99   -2.92858
     9596.99   -2.92967
     9600.00   -2.93052
     9603.01   -2.93102
     9606.01   -2.93106
     9609.02   -2.93052
     9612.03   -2.92931
     9615.04   -2.92736
     9618.04   -2.92461
     9621.05   -2.92100
     9624.06   -2.91652
     9627.07   -2.91114
     9630.08   -2.90490
     9633.08   -2.89781
     9636.09   -2.88994
     9639.10   -2.88136
     9642.11   -2.87216
     9645.11   -2.86245
     9648.12   -2.85236
     9651.13   -2.84203
     9654.13   -2.83162
     9657.14   -2.82129
     9660.15   -2.81123
     9663.16   -2.80160
     9666.17   -2.79259
     9669.17   -2.78438
     9672.18   -2.77715
     9675.19   -2.77106
     9678.20   -2.76629
     9681.20   -2.76297
     9684.21   -2.76124
     9687.22   -2.76122
     9690.23   -2.76300
     9693.23   -2.76666
     9696.24   -2.77224
     9699.25   -2.77976
     9702.26   -2.78924
     9705.26   -2.80063
     9708.27   -2.81389
     9711.28   -2.82893
     9714.29   -2.84565
     9717.29   -2.86392
     9720.30   -2.88359
     9723.31   -2.90449
     9726.32   -2.92642
     9729.32   -2.94919
     9732.33   -2.97256
     9735.34   -2.99631
     9738.35   -3.02021
     9741.35   -3.04402
     9744.36   -3.06749
     9747.37   -3.09041
     9750.38   -3.11253
     9753.38   -3.13365
     9756.39   -3.15357
     9759.40   -3.17208
     9762.41   -3.18904
     9765.41   -3.20430
     9768.42   -3.21773
     9771.43   -3.22924
     9774.44   -3.23876
     9777.44   -3.24625
     9780.45   -3.25168
     9783.46   -3.25508
     9786.47   -3.25648
     9789.47   -3.25594
     9792.48   -3.25356
     9795.49   -3.24943
     9798.50   -3.24370
     9801.50   -3.23651
     9804.51   -3.22802
     9807.52   -3.21840
     9810.53   -3.20784
     9813.53   -3.19653
     9816.54   -3.18466
     9819.55   -3.17241
     9822.56   -3.15997
     9825.56   -3.14752
     9828.57   -3.13522
     9831.58   -3.12324
     9834.59   -3.11170
     9837.59   -3.10073
     9840.60   -3.09043
     9843.61   -3.08088
     9846.62   -3.07215
     9849.62   -3.06427
     9852.63   -3.05726
     9855.64   -3.05111
     9858.65   -3.04580
     9861.65   -3.04129
     9864.66   -3.03750
     9867.67   -3.03437
     9870.68   -3.03180
     9873.68   -3.02969
     9876.69   -3.02792
     9879.70   -3.02638
     9882.71   -3.02496
     9885.71   -3.02352
     9888.72   -3.02195
     9891.73   -3.02015
     9894.74   -3.01800
     9897.74   -3.01544
     9900.75   -3.01236
     9903.76   -3.00873
     9906.77   -3.00450
     9909.77   -2.99964
     9912.78   -2.99415
     9915.79   -2.98805
     9918.80   -2.98139
     9921.80   -2.97422
     9924.81   -2.96662
     9927.82   -2.95870
     9930.83   -2.95056
     9933.83   -2.94234
     9936.84   -2.93420
     9939.85   -2.92628
     9942.86   -2.91875
     9945.86   -2.91178
     9948.87   -2.90555
     9951.88   -2.90022
     9954.89   -2.89597
     9957.89   -2.89295
     9960.90   -2.89132
     9963.91   -2.89122
     9966.92   -2.89276
     9969.92   -2.89605
     9972.93   -2.90117
     9975.94   -2.90818
     9978.95   -2.91713
     9981.96   -2.92801
     9984.96   -2.94082
     9987.97   -2.95551
     9990.98   -2.97203
     9993.99   -2.99028
     9996.99   -3.01014
    10000.00   -3.03149
    10003.01   -3.05415
    10006.01   -3.07797
    10009.02   -3.10273
    10012.03   -3.12824
    10015.04   -3.15429
    10018.04   -3.18064
    10021.05   -3.20707
    10024.06   -3.23336
    10027.07   -3.25927
    10030.08   -3.28458
    10033.08   -3.30908
    10036.09   -3.33257
    10039.10   -3.35486
    10042.11   -3.37578
    10045.11   -3.39517
    10048.12   -3.41291
    10051.13   -3.42887
    10054.13   -3.44297
    10057.14   -3.45514
    10060.15   -3.46534
    10063.16   -3.47355
    10066.17   -3.47976
    10069.17   -3.48401
    10072.18   -3.48633
    10075.19   -3.48678
    10078.20   -3.48545
    10081.20   -3.48243
    10084.21   -3.47783
    10087.22   -3.47176
    10090.23   -3.46434
    10093.23   -3.45571
    10096.24   -3.44600
    10099.25   -3.43535
    10102.26   -3.42387
    10105.26   -3.41171
    10108.27   -3.39897
    10111.28   -3.38577
    10114.29   -3.37222
    10117.29   -3.35840
    10120.30   -3.34440
    10123.31   -3.33027
    10126.32   -3.31607
    10129.32   -3.30185
    10132.33   -3.28762
    10135.34   -3.27341
    10138.35   -3.25922
    10141.35   -3.24503
    10144.36   -3.23084
    10147.37   -3.21661
    10150.38   -3.20232
    10153.38   -3.18793
    10156.39   -3.17340
    10159.40   -3.15869
    10162.41   -3.14376
    10165.41   -3.12858
    10168.42   -3.11312
    10171.43   -3.09734
    10174.44   -3.08123
    10177.44   -3.06478
    10180.45   -3.04799
    10183.46   -3.03086
    10186.47   -3.01342
    10189.47   -2.99569
    10192.48   -2.97771
    10195.49   -2.95954
    10198.50   -2.94122
    10201.50   -2.92284
    10204.51   -2.90447
    10207.52   -2.88619
    10210.53   -2.86808
    10213.53   -2.85025
    10216.54   -2.83277
    10219.55   -2.81575
    10222.56   -2.79927
    10225.56   -2.78343
    10228.57   -2.76829
    10231.58   -2.75394
    10234.59   -2.74045
    10237.59   -2.72787
    10240.60   -2.71623
    10243.61   -2.70559
    10246.62   -2.69595
    10249.62   -2.68732
    10252.63   -2.67969
    10255.64   -2.67305
    10258.65   -2.66735
    10261.65   -2.66254
    10264.66   -2.65857
    10267.67   -2.65536
    10270.68   -2.65283
    10273.68   -2.65089
    10276.69   -2.64944
    10279.70   -2.64837
    10282.71   -2.64759
    10285.71   -2.64697
    10288.72   -2.64640
    10291.73   -2.64579
    10294.74   -2.64503
    10297.74   -2.64402
    10300.75   -2.64268
    10303.76   -2.64091
    10306.77   -2.63865
    10309.77   -2.63585
    10312.78   -2.63245
    10315.79   -2.62843
    10318.80   -2.62376
    10321.80   -2.61844
    10324.81   -2.61247
    10327.82   -2.60587
    10330.83   -2.59869
    10333.83   -2.59096
    10336.84   -2.58274
    10339.85   -2.57410
    10342.86   -2.56511
    10345.86   -2.55585
    10348.87   -2.54641
    10351.88   -2.53687
    10354.89   -2.52733
    10357.89   -2.51787
    10360.90   -2.50859
    10363.91   -2.49956
    10366.92   -2.49087
    10369.92   -2.48257
    10372.93   -2.47475
    10375.94   -2.46744
    10378.95   -2.46070
    10381.96   -2.45455
    10384.96   -2.44901
    10387.97   -2.44408
    10390.98   -2.43978
    10393.98   -2.43607
    10396.99   -2.43294
    10400.00   -2.43033
    10403.01   -2.42822
    10406.01   -2.42653
    10409.02   -2.42520
    10412.03   -2.42417
    10415.04   -2.42336
    10418.04   -2.42269
    10421.05   -2.42207
    10424.06   -2.42144
    10427.07   -2.42072
    10430.08   -2.41981
    10433.08   -2.41867
    10436.09   -2.41721
    10439.10   -2.41539
    10442.11   -2.41315
    10445.11   -2.41046
    10448.12   -2.40727
    10451.13   -2.40358
    10454.13   -2.39936
    10457.14   -2.39462
    10460.15   -2.38937
    10463.16   -2.38363
    10466.17   -2.37742
    10469.17   -2.37078
    10472.18   -2.36377
    10475.19   -2.35642
    10478.20   -2.34880
    10481.20   -2.34096
    10484.21   -2.33298
    10487.22   -2.32491
    10490.23   -2.31682
    10493.23   -2.30877
    10496.24   -2.30083
    10499.25   -2.29304
    10502.26   -2.28547
    10505.26   -2.27815
    10508.27   -2.27112
    10511.28   -2.26441
    10514.29   -2.25804
    10517.29   -2.25203
    10520.30   -2.24637
    10523.31   -2.24107
    10526.32   -2.23609
    10529.32   -2.23142
    10532.33   -2.22702
    10535.34   -2.22285
    10538.35   -2.21886
    10541.35   -2.21500
    10544.36   -2.21121
    10547.37   -2.20742
    10550.38   -2.20357
     10553.4   -2.19959
     10556.4   -2.19541
     10559.4   -2.19096
     10562.4   -2.18618
     10565.4   -2.18101
     10568.4   -2.17538
     10571.4   -2.16925
     10574.4   -2.16256
     10577.4   -2.15527
     10580.5   -2.14736
     10583.5   -2.13878
     10586.5   -2.12954
     10589.5   -2.11960
     10592.5   -2.10897
     10595.5   -2.09765
     10598.5   -2.08565
     10601.5   -2.07298
     10604.5   -2.05967
     10607.5   -2.04574
     10610.5   -2.03121
     10613.5   -2.01613
     10616.5   -2.00052
     10619.5   -1.98442
     10622.6   -1.96786
     10625.6   -1.95088
     10628.6   -1.93351
     10631.6   -1.91578
     10634.6   -1.89770
     10637.6   -1.87931
     10640.6   -1.86062
     10643.6   -1.84164
     10646.6   -1.82238
     10649.6   -1.80284
     10652.6   -1.78300
     10655.6   -1.76287
     10658.6   -1.74243
     10661.7   -1.72166
     10664.7   -1.70053
     10667.7   -1.67903
     10670.7   -1.65712
     10673.7   -1.63478
     10676.7   -1.61198
     10679.7   -1.58869
     10682.7   -1.56489
     10685.7   -1.54056
     10688.7   -1.51568
     10691.7   -1.49024
     10694.7   -1.46424
     10697.7   -1.43768
     10700.8   -1.41057
     10703.8   -1.38293
     10706.8   -1.35479
     10709.8   -1.32619
     10712.8   -1.29719
     10715.8   -1.26784
     10718.8   -1.23820
     10721.8   -1.20837
     10724.8   -1.17843
     10727.8   -1.14847
     10730.8   -1.11861
     10733.8   -1.08896
     10736.8   -1.05963
     10739.8   -1.03074
     10742.9   -1.00244
     10745.9  -0.974829
     10748.9  -0.948054
     10751.9  -0.922238
     10754.9  -0.897509
     10757.9  -0.873986
     10760.9  -0.851787
     10763.9  -0.831020
     10766.9  -0.811789
     10769.9  -0.794185
     10772.9  -0.778289
     10775.9  -0.764173
     10778.9  -0.751893
     10782.0  -0.741496
     10785.0  -0.733012
     10788.0  -0.726460
     10791.0  -0.721842
     10794.0  -0.719149
     10797.0  -0.718355
     10800.0  -0.719424
     10803.0  -0.722303
     10806.0  -0.726930
     10809.0  -0.733228
     10812.0  -0.741114
     10815.0  -0.750490
     10818.0  -0.761253
     10821.1  -0.773291
     10824.1  -0.786488
     10827.1  -0.800719
     10830.1  -0.815862
     10833.1  -0.831786
     10836.1  -0.848364
     10839.1  -0.865467
     10842.1  -0.882968
     10845.1  -0.900743
     10848.1  -0.918674
     10851.1  -0.936641
     10854.1  -0.954537
     10857.1  -0.972257
     10860.2  -0.989705
     10863.2   -1.00679
     10866.2   -1.02343
     10869.2   -1.03956
     10872.2   -1.05510
     10875.2   -1.06999
     10878.2   -1.08420
     10881.2   -1.09767
     10884.2   -1.11037
     10887.2   -1.12226
     10890.2   -1.13334
     10893.2   -1.14358
     10896.2   -1.15297
     10899.2   -1.16150
     10902.3   -1.16917
     10905.3   -1.17599
     10908.3   -1.18194
     10911.3   -1.18704
     10914.3   -1.19129
     10917.3   -1.19469
     10920.3   -1.19726
     10923.3   -1.19900
     10926.3   -1.19991
     10929.3   -1.20000
     10932.3   -1.19927
     10935.3   -1.19772
     10938.3   -1.19535
     10941.4   -1.19216
     10944.4   -1.18814
     10947.4   -1.18329
     10950.4   -1.17761
     10953.4   -1.17108
     10956.4   -1.16371
     10959.4   -1.15547
     10962.4   -1.14638
     10965.4   -1.13642
     10968.4   -1.12558
     10971.4   -1.11387
     10974.4   -1.10129
     10977.4   -1.08784
     10980.5   -1.07353
     10983.5   -1.05837
     10986.5   -1.04238
     10989.5   -1.02558
     10992.5   -1.00799
     10995.5  -0.989650
     10998.5  -0.970597
     11001.5  -0.950873
     11004.5  -0.930531
     11007.5  -0.909623
     11010.5  -0.888213
     11013.5  -0.866367
     11016.5  -0.844158
     11019.5  -0.821665
     11022.6  -0.798967
     11025.6  -0.776151
     11028.6  -0.753307
     11031.6  -0.730525
     11034.6  -0.707898
     11037.6  -0.685522
     11040.6  -0.663491
     11043.6  -0.641900
     11046.6  -0.620840
     11049.6  -0.600402
     11052.6  -0.580672
     11055.6  -0.561733
     11058.6  -0.543663
     11061.7  -0.526533
     11064.7  -0.510410
     11067.7  -0.495350
     11070.7  -0.481403
     11073.7  -0.468610
     11076.7  -0.457005
     11079.7  -0.446610
     11082.7  -0.437439
     11085.7  -0.429493
     11088.7  -0.422769
     11091.7  -0.417248
     11094.7  -0.412905
     11097.7  -0.409705
     11100.8  -0.407602
     11103.8  -0.406543
     11106.8  -0.406468
     11109.8  -0.407308
     11112.8  -0.408987
     11115.8  -0.411425
     11118.8  -0.414537
     11121.8  -0.418233
     11124.8  -0.422421
     11127.8  -0.427007
     11130.8  -0.431898
     11133.8  -0.437000
     11136.8  -0.442220
     11139.8  -0.447470
     11142.9  -0.452663
     11145.9  -0.457719
     11148.9  -0.462562
     11151.9  -0.467125
     11154.9  -0.471344
     11157.9  -0.475168
     11160.9  -0.478551
     11163.9  -0.481457
     11166.9  -0.483859
     11169.9  -0.485741
     11172.9  -0.487093
     11175.9  -0.487919
     11178.9  -0.488229
     11182.0  -0.488044
     11185.0  -0.487392
     11188.0  -0.486311
     11191.0  -0.484843
     11194.0  -0.483041
     11197.0  -0.480960
     11200.0  -0.478664
     11203.0  -0.476216
     11206.0  -0.473686
     11209.0  -0.471144
     11212.0  -0.468661
     11215.0  -0.466309
     11218.0  -0.464157
     11221.1  -0.462273
     11224.1  -0.460722
     11227.1  -0.459562
     11230.1  -0.458852
     11233.1  -0.458639
     11236.1  -0.458968
     11239.1  -0.459876
     11242.1  -0.461392
     11245.1  -0.463539
     11248.1  -0.466330
     11251.1  -0.469774
     11254.1  -0.473869
     11257.1  -0.478608
     11260.2  -0.483975
     11263.2  -0.489948
     11266.2  -0.496500
     11269.2  -0.503598
     11272.2  -0.511200
     11275.2  -0.519269
     11278.2  -0.527755
     11281.2  -0.536611
     11284.2  -0.545790
     11287.2  -0.555237
     11290.2  -0.564906
     11293.2  -0.574745
     11296.2  -0.584708
     11299.2  -0.594749
     11302.3  -0.604827
     11305.3  -0.614905
     11308.3  -0.624948
     11311.3  -0.634929
     11314.3  -0.644823
     11317.3  -0.654614
     11320.3  -0.664288
     11323.3  -0.673839
     11326.3  -0.683266
     11329.3  -0.692572
     11332.3  -0.701767
     11335.3  -0.710864
     11338.3  -0.719881
     11341.4  -0.728842
     11344.4  -0.737769
     11347.4  -0.746691
     11350.4  -0.755638
     11353.4  -0.764641
     11356.4  -0.773730
     11359.4  -0.782939
     11362.4  -0.792298
     11365.4  -0.801836
     11368.4  -0.811583
     11371.4  -0.821564
     11374.4  -0.831800
     11377.4  -0.842314
     11380.5  -0.853119
     11383.5  -0.864230
     11386.5  -0.875655
     11389.5  -0.887401
     11392.5  -0.899468
     11395.5  -0.911852
     11398.5  -0.924550
     11401.5  -0.937552
     11404.5  -0.950846
     11407.5  -0.964417
     11410.5  -0.978247
     11413.5  -0.992320
     11416.5   -1.00661
     11419.5   -1.02111
     11422.6   -1.03579
     11425.6   -1.05062
     11428.6   -1.06560
     11431.6   -1.08069
     11434.6   -1.09589
     11437.6   -1.11118
     11440.6   -1.12653
     11443.6   -1.14195
     11446.6   -1.15741
     11449.6   -1.17292
     11452.6   -1.18847
     11455.6   -1.20404
     11458.6   -1.21966
     11461.7   -1.23530
     11464.7   -1.25098
     11467.7   -1.26670
     11470.7   -1.28246
     11473.7   -1.29827
     11476.7   -1.31413
     11479.7   -1.33005
     11482.7   -1.34604
     11485.7   -1.36208
     11488.7   -1.37820
     11491.7   -1.39438
     11494.7   -1.41062
     11497.7   -1.42692
     11500.8   -1.44326
     11503.8   -1.45965
     11506.8   -1.47605
     11509.8   -1.49247
     11512.8   -1.50887
     11515.8   -1.52524
     11518.8   -1.54155
     11521.8   -1.55777
     11524.8   -1.57388
     11527.8   -1.58984
     11530.8   -1.60562
     11533.8   -1.62120
     11536.8   -1.63654
     11539.8   -1.65160
     11542.9   -1.66637
     11545.9   -1.68081
     11548.9   -1.69490
     11551.9   -1.70861
     11554.9   -1.72193
     11557.9   -1.73484
     11560.9   -1.74732
     11563.9   -1.75938
     11566.9   -1.77101
     11569.9   -1.78221
     11572.9   -1.79299
     11575.9   -1.80336
     11578.9   -1.81334
     11582.0   -1.82295
     11585.0   -1.83222
     11588.0   -1.84118
     11591.0   -1.84985
     11594.0   -1.85827
     11597.0   -1.86649
     11600.0   -1.87454
     11603.0   -1.88247
     11606.0   -1.89031
     11609.0   -1.89810
     11612.0   -1.90589
     11615.0   -1.91371
     11618.0   -1.92160
     11621.1   -1.92959
     11624.1   -1.93771
     11627.1   -1.94599
     11630.1   -1.95445
     11633.1   -1.96310
     11636.1   -1.97196
     11639.1   -1.98103
     11642.1   -1.99032
     11645.1   -1.99982
     11648.1   -2.00953
     11651.1   -2.01943
     11654.1   -2.02950
     11657.1   -2.03974
     11660.2   -2.05010
     11663.2   -2.06057
     11666.2   -2.07112
     11669.2   -2.08171
     11672.2   -2.09231
     11675.2   -2.10290
     11678.2   -2.11343
     11681.2   -2.12388
     11684.2   -2.13422
     11687.2   -2.14442
     11690.2   -2.15446
     11693.2   -2.16430
     11696.2   -2.17394
     11699.2   -2.18336
     11702.3   -2.19254
     11705.3   -2.20148
     11708.3   -2.21017
     11711.3   -2.21862
     11714.3   -2.22684
     11717.3   -2.23482
     11720.3   -2.24259
     11723.3   -2.25017
     11726.3   -2.25757
     11729.3   -2.26482
     11732.3   -2.27194
     11735.3   -2.27896
     11738.3   -2.28593
     11741.4   -2.29286
     11744.4   -2.29979
     11747.4   -2.30676
     11750.4   -2.31381
     11753.4   -2.32097
     11756.4   -2.32827
     11759.4   -2.33576
     11762.4   -2.34347
     11765.4   -2.35143
     11768.4   -2.35969
     11771.4   -2.36827
     11774.4   -2.37722
     11777.4   -2.38656
     11780.5   -2.39634
     11783.5   -2.40658
     11786.5   -2.41733
     11789.5   -2.42863
     11792.5   -2.44050
     11795.5   -2.45299
     11798.5   -2.46614
     11801.5   -2.47999
     11804.5   -2.49458
     11807.5   -2.50995
     11810.5   -2.52615
     11813.5   -2.54322
     11816.5   -2.56122
     11819.5   -2.58018
     11822.6   -2.60015
     11825.6   -2.62119
     11828.6   -2.64332
     11831.6   -2.66660
     11834.6   -2.69107
     11837.6   -2.71675
     11840.6   -2.74369
     11843.6   -2.77191
     11846.6   -2.80142
     11849.6   -2.83224
     11852.6   -2.86437
     11855.6   -2.89782
     11858.6   -2.93255
     11861.7   -2.96855
     11864.7   -3.00578
     11867.7   -3.04418
     11870.7   -3.08370
     11873.7   -3.12427
     11876.7   -3.16578
     11879.7   -3.20815
     11882.7   -3.25126
     11885.7   -3.29498
     11888.7   -3.33919
     11891.7   -3.38373
     11894.7   -3.42845
     11897.7   -3.47318
     11900.8   -3.51777
     11903.8   -3.56203
     11906.8   -3.60579
     11909.8   -3.64888
     11912.8   -3.69111
     11915.8   -3.73231
     11918.8   -3.77232
     11921.8   -3.81097
     11924.8   -3.84811
     11927.8   -3.88361
     11930.8   -3.91734
     11933.8   -3.94918
     11936.8   -3.97905
     11939.8   -4.00687
     11942.9   -4.03257
     11945.9   -4.05613
     11948.9   -4.07753
     11951.9   -4.09677
     11954.9   -4.11389
     11957.9   -4.12893
     11960.9   -4.14197
     11963.9   -4.15310
     11966.9   -4.16242
     11969.9   -4.17006
     11972.9   -4.17617
     11975.9   -4.18091
     11978.9   -4.18444
     11982.0   -4.18694
     11985.0   -4.18860
     11988.0   -4.18960
     11991.0   -4.19014
     11994.0   -4.19040
     11997.0   -4.19057
     12000.0   -4.19083
     12003.0   -4.19133
     12006.0   -4.19223
     12009.0   -4.19367
     12012.0   -4.19577
     12015.0   -4.19863
     12018.0   -4.20232
     12021.1   -4.20690
     12024.1   -4.21241
     12027.1   -4.21884
     12030.1   -4.22618
     12033.1   -4.23439
     12036.1   -4.24340
     12039.1   -4.25310
     12042.1   -4.26339
     12045.1   -4.27413
     12048.1   -4.28517
     12051.1   -4.29631
     12054.1   -4.30738
     12057.1   -4.31818
     12060.2   -4.32848
     12063.2   -4.33808
     12066.2   -4.34675
     12069.2   -4.35426
     12072.2   -4.36041
     12075.2   -4.36497
     12078.2   -4.36775
     12081.2   -4.36856
     12084.2   -4.36723
     12087.2   -4.36359
     12090.2   -4.35752
     12093.2   -4.34890
     12096.2   -4.33765
     12099.2   -4.32372
     12102.3   -4.30707
     12105.3   -4.28769
     12108.3   -4.26563
     12111.3   -4.24092
     12114.3   -4.21365
     12117.3   -4.18395
     12120.3   -4.15194
     12123.3   -4.11778
     12126.3   -4.08167
     12129.3   -4.04381
     12132.3   -4.00443
     12135.3   -3.96376
     12138.3   -3.92206
     12141.4   -3.87960
     12144.4   -3.83665
     12147.4   -3.79347
     12150.4   -3.75035
     12153.4   -3.70756
     12156.4   -3.66535
     12159.4   -3.62399
     12162.4   -3.58372
     12165.4   -3.54478
     12168.4   -3.50736
     12171.4   -3.47167
     12174.4   -3.43789
     12177.4   -3.40615
     12180.5   -3.37659
     12183.5   -3.34932
     12186.5   -3.32440
     12189.5   -3.30190
     12192.5   -3.28184
     12195.5   -3.26422
     12198.5   -3.24904
     12201.5   -3.23623
     12204.5   -3.22576
     12207.5   -3.21753
     12210.5   -3.21144
     12213.5   -3.20738
     12216.5   -3.20523
     12219.5   -3.20485
     12222.6   -3.20610
     12225.6   -3.20882
     12228.6   -3.21285
     12231.6   -3.21806
     12234.6   -3.22427
     12237.6   -3.23135
     12240.6   -3.23914
     12243.6   -3.24752
     12246.6   -3.25635
     12249.6   -3.26552
     12252.6   -3.27493
     12255.6   -3.28449
     12258.6   -3.29411
     12261.7   -3.30373
     12264.7   -3.31332
     12267.7   -3.32283
     12270.7   -3.33224
     12273.7   -3.34155
     12276.7   -3.35077
     12279.7   -3.35992
     12282.7   -3.36901
     12285.7   -3.37811
     12288.7   -3.38725
     12291.7   -3.39648
     12294.7   -3.40587
     12297.7   -3.41548
     12300.8   -3.42537
     12303.8   -3.43560
     12306.8   -3.44623
     12309.8   -3.45732
     12312.8   -3.46892
     12315.8   -3.48107
     12318.8   -3.49382
     12321.8   -3.50718
     12324.8   -3.52118
     12327.8   -3.53582
     12330.8   -3.55109
     12333.8   -3.56698
     12336.8   -3.58345
     12339.8   -3.60046
     12342.9   -3.61796
     12345.9   -3.63588
     12348.9   -3.65414
     12351.9   -3.67266
     12354.9   -3.69134
     12357.9   -3.71006
     12360.9   -3.72873
     12363.9   -3.74721
     12366.9   -3.76539
     12369.9   -3.78315
     12372.9   -3.80035
     12375.9   -3.81687
     12378.9   -3.83258
     12382.0   -3.84737
     12385.0   -3.86112
     12388.0   -3.87371
     12391.0   -3.88506
     12394.0   -3.89506
     12397.0   -3.90363
     12400.0   -3.91071
     12403.0   -3.91623
     12406.0   -3.92015
     12409.0   -3.92244
     12412.0   -3.92308
     12415.0   -3.92205
     12418.0   -3.91938
     12421.1   -3.91508
     12424.1   -3.90919
     12427.1   -3.90176
     12430.1   -3.89285
     12433.1   -3.88252
     12436.1   -3.87086
     12439.1   -3.85797
     12442.1   -3.84394
     12445.1   -3.82887
     12448.1   -3.81288
     12451.1   -3.79608
     12454.1   -3.77859
     12457.1   -3.76053
     12460.2   -3.74202
     12463.2   -3.72317
     12466.2   -3.70410
     12469.2   -3.68493
     12472.2   -3.66574
     12475.2   -3.64666
     12478.2   -3.62775
     12481.2   -3.60911
     12484.2   -3.59081
     12487.2   -3.57291
     12490.2   -3.55548
     12493.2   -3.53854
     12496.2   -3.52213
     12499.2   -3.50628
     12502.3   -3.49099
     12505.3   -3.47627
     12508.3   -3.46210
     12511.3   -3.44848
     12514.3   -3.43537
     12517.3   -3.42273
     12520.3   -3.41053
     12523.3   -3.39872
     12526.3   -3.38725
     12529.3   -3.37606
     12532.3   -3.36509
     12535.3   -3.35428
     12538.3   -3.34357
     12541.4   -3.33290
     12544.4   -3.32221
     12547.4   -3.31144
     12550.4   -3.30056
     12553.4   -3.28950
     12556.4   -3.27823
     12559.4   -3.26672
     12562.4   -3.25494
     12565.4   -3.24286
     12568.4   -3.23050
     12571.4   -3.21783
     12574.4   -3.20487
     12577.4   -3.19164
     12580.5   -3.17815
     12583.5   -3.16445
     12586.5   -3.15058
     12589.5   -3.13659
     12592.5   -3.12253
     12595.5   -3.10847
     12598.5   -3.09447
     12601.5   -3.08062
     12604.5   -3.06698
     12607.5   -3.05365
     12610.5   -3.04069
     12613.5   -3.02819
     12616.5   -3.01624
     12619.5   -3.00491
     12622.6   -2.99428
     12625.6   -2.98442
     12628.6   -2.97541
     12631.6   -2.96730
     12634.6   -2.96014
     12637.6   -2.95399
     12640.6   -2.94889
     12643.6   -2.94485
     12646.6   -2.94191
     12649.6   -2.94008
     12652.6   -2.93934
     12655.6   -2.93970
     12658.6   -2.94113
     12661.7   -2.94361
     12664.7   -2.94709
     12667.7   -2.95151
     12670.7   -2.95684
     12673.7   -2.96298
     12676.7   -2.96989
     12679.7   -2.97746
     12682.7   -2.98562
     12685.7   -2.99428
     12688.7   -3.00334
     12691.7   -3.01270
     12694.7   -3.02227
     12697.7   -3.03195
     12700.8   -3.04164
     12703.8   -3.05125
     12706.8   -3.06068
     12709.8   -3.06986
     12712.8   -3.07869
     12715.8   -3.08710
     12718.8   -3.09502
     12721.8   -3.10238
     12724.8   -3.10915
     12727.8   -3.11526
     12730.8   -3.12068
     12733.8   -3.12539
     12736.8   -3.12937
     12739.8   -3.13261
     12742.9   -3.13510
     12745.9   -3.13687
     12748.9   -3.13792
     12751.9   -3.13828
     12754.9   -3.13799
     12757.9   -3.13709
     12760.9   -3.13562
     12763.9   -3.13363
     12766.9   -3.13118
     12769.9   -3.12833
     12772.9   -3.12514
     12775.9   -3.12167
     12778.9   -3.11800
     12782.0   -3.11418
     12785.0   -3.11029
     12788.0   -3.10637
     12791.0   -3.10251
     12794.0   -3.09874
     12797.0   -3.09514
     12800.0   -3.09175
     12803.0   -3.08861
     12806.0   -3.08577
     12809.0   -3.08327
     12812.0   -3.08113
     12815.0   -3.07939
     12818.0   -3.07807
     12821.1   -3.07719
     12824.1   -3.07675
     12827.1   -3.07676
     12830.1   -3.07723
     12833.1   -3.07816
     12836.1   -3.07955
     12839.1   -3.08138
     12842.1   -3.08365
     12845.1   -3.08634
     12848.1   -3.08945
     12851.1   -3.09295
     12854.1   -3.09683
     12857.1   -3.10107
     12860.2   -3.10567
     12863.2   -3.11059
     12866.2   -3.11583
     12869.2   -3.12136
     12872.2   -3.12718
     12875.2   -3.13326
     12878.2   -3.13960
     12881.2   -3.14618
     12884.2   -3.15299
     12887.2   -3.16002
     12890.2   -3.16726
     12893.2   -3.17469
     12896.2   -3.18231
     12899.2   -3.19011
     12902.3   -3.19807
     12905.3   -3.20619
     12908.3   -3.21445
     12911.3   -3.22285
     12914.3   -3.23137
     12917.3   -3.24001
     12920.3   -3.24874
     12923.3   -3.25755
     12926.3   -3.26643
     12929.3   -3.27537
     12932.3   -3.28435
     12935.3   -3.29335
     12938.3   -3.30236
     12941.4   -3.31137
     12944.4   -3.32036
     12947.4   -3.32932
     12950.4   -3.33824
     12953.4   -3.34711
     12956.4   -3.35593
     12959.4   -3.36469
     12962.4   -3.37339
     12965.4   -3.38203
     12968.4   -3.39061
     12971.4   -3.39916
     12974.4   -3.40767
     12977.4   -3.41617
     12980.5   -3.42467
     12983.5   -3.43320
     12986.5   -3.44178
     12989.5   -3.45043
     12992.5   -3.45919
     12995.5   -3.46808
     12998.5   -3.47713
     13001.5   -3.48637
     13004.5   -3.49583
     13007.5   -3.50552
     13010.5   -3.51547
     13013.5   -3.52570
     13016.5   -3.53621
     13019.5   -3.54700
     13022.6   -3.55807
     13025.6   -3.56942
     13028.6   -3.58101
     13031.6   -3.59282
     13034.6   -3.60480
     13037.6   -3.61691
     13040.6   -3.62908
     13043.6   -3.64123
     13046.6   -3.65330
     13049.6   -3.66519
     13052.6   -3.67680
     13055.6   -3.68802
     13058.6   -3.69874
     13061.7   -3.70885
     13064.7   -3.71823
     13067.7   -3.72676
     13070.7   -3.73431
     13073.7   -3.74078
     13076.7   -3.74605
     13079.7   -3.75002
     13082.7   -3.75260
     13085.7   -3.75371
     13088.7   -3.75328
     13091.7   -3.75128
     13094.7   -3.74766
     13097.7   -3.74242
     13100.8   -3.73558
     13103.8   -3.72717
     13106.8   -3.71726
     13109.8   -3.70593
     13112.8   -3.69330
     13115.8   -3.67949
     13118.8   -3.66468
     13121.8   -3.64905
     13124.8   -3.63281
     13127.8   -3.61617
     13130.8   -3.59940
     13133.8   -3.58274
     13136.8   -3.56646
     13139.8   -3.55086
     13142.9   -3.53621
     13145.9   -3.52279
     13148.9   -3.51089
     13151.9   -3.50078
     13154.9   -3.49273
     13157.9   -3.48698
     13160.9   -3.48376
     13163.9   -3.48326
     13166.9   -3.48567
     13169.9   -3.49111
     13172.9   -3.49971
     13175.9   -3.51153
     13178.9   -3.52659
     13182.0   -3.54489
     13185.0   -3.56638
     13188.0   -3.59095
     13191.0   -3.61846
     13194.0   -3.64874
     13197.0   -3.68155
     13200.0   -3.71665
     13203.0   -3.75373
     13206.0   -3.79246
     13209.0   -3.83249
     13212.0   -3.87344
     13215.0   -3.91490
     13218.0   -3.95647
     13221.1   -3.99772
     13224.1   -4.03822
     13227.1   -4.07756
     13230.1   -4.11534
     13233.1   -4.15114
     13236.1   -4.18461
     13239.1   -4.21539
     13242.1   -4.24318
     13245.1   -4.26768
     13248.1   -4.28868
     13251.1   -4.30598
     13254.1   -4.31943
     13257.1   -4.32894
     13260.2   -4.33448
     13263.2   -4.33604
     13266.2   -4.33370
     13269.2   -4.32756
     13272.2   -4.31779
     13275.2   -4.30460
     13278.2   -4.28824
     13281.2   -4.26899
     13284.2   -4.24719
     13287.2   -4.22318
     13290.2   -4.19735
     13293.2   -4.17008
     13296.2   -4.14178
     13299.2   -4.11286
     13302.3   -4.08373
     13305.3   -4.05477
     13308.3   -4.02636
     13311.3   -3.99886
     13314.3   -3.97260
     13317.3   -3.94786
     13320.3   -3.92490
     13323.3   -3.90393
     13326.3   -3.88512
     13329.3   -3.86857
     13332.3   -3.85436
     13335.3   -3.84249
     13338.3   -3.83293
     13341.4   -3.82558
     13344.4   -3.82032
     13347.4   -3.81695
     13350.4   -3.81524
     13353.4   -3.81495
     13356.4   -3.81577
     13359.4   -3.81738
     13362.4   -3.81945
     13365.4   -3.82161
     13368.4   -3.82352
     13371.4   -3.82480
     13374.4   -3.82511
     13377.4   -3.82411
     13380.5   -3.82149
     13383.5   -3.81697
     13386.5   -3.81030
     13389.5   -3.80127
     13392.5   -3.78971
     13395.5   -3.77552
     13398.5   -3.75864
     13401.5   -3.73906
     13404.5   -3.71684
     13407.5   -3.69208
     13410.5   -3.66495
     13413.5   -3.63568
     13416.5   -3.60454
     13419.5   -3.57185
     13422.6   -3.53798
     13425.6   -3.50334
     13428.6   -3.46836
     13431.6   -3.43352
     13434.6   -3.39930
     13437.6   -3.36620
     13440.6   -3.33472
     13443.6   -3.30535
     13446.6   -3.27858
     13449.6   -3.25488
     13452.6   -3.23468
     13455.6   -3.21838
     13458.6   -3.20635
     13461.7   -3.19888
     13464.7   -3.19625
     13467.7   -3.19864
     13470.7   -3.20620
     13473.7   -3.21899
     13476.7   -3.23702
     13479.7   -3.26022
     13482.7   -3.28847
     13485.7   -3.32156
     13488.7   -3.35924
     13491.7   -3.40118
     13494.7   -3.44700
     13497.7   -3.49629
     13500.8   -3.54855
     13503.8   -3.60328
     13506.8   -3.65994
     13509.8   -3.71794
     13512.8   -3.77671
     13515.8   -3.83565
     13518.8   -3.89416
     13521.8   -3.95165
     13524.8   -4.00754
     13527.8   -4.06128
     13530.8   -4.11236
     13533.8   -4.16027
     13536.8   -4.20458
     13539.8   -4.24488
     13542.9   -4.28083
     13545.9   -4.31213
     13548.9   -4.33855
     13551.9   -4.35990
     13554.9   -4.37608
     13557.9   -4.38702
     13560.9   -4.39274
     13563.9   -4.39328
     13566.9   -4.38876
     13569.9   -4.37937
     13572.9   -4.36530
     13575.9   -4.34683
     13578.9   -4.32426
     13582.0   -4.29792
     13585.0   -4.26818
     13588.0   -4.23542
     13591.0   -4.20007
     13594.0   -4.16252
     13597.0   -4.12322
     13600.0   -4.08260
     13603.0   -4.04106
     13606.0   -3.99905
     13609.0   -3.95696
     13612.0   -3.91518
     13615.0   -3.87408
     13618.0   -3.83403
     13621.1   -3.79533
     13624.1   -3.75831
     13627.1   -3.72322
     13630.1   -3.69032
     13633.1   -3.65984
     13636.1   -3.63197
     13639.1   -3.60687
     13642.1   -3.58470
     13645.1   -3.56558
     13648.1   -3.54961
     13651.1   -3.53687
     13654.1   -3.52742
     13657.1   -3.52132
     13660.2   -3.51858
     13663.2   -3.51925
     13666.2   -3.52331
     13669.2   -3.53078
     13672.2   -3.54163
     13675.2   -3.55586
     13678.2   -3.57343
     13681.2   -3.59431
     13684.2   -3.61845
     13687.2   -3.64582
     13690.2   -3.67633
     13693.2   -3.70993
     13696.2   -3.74652
     13699.2   -3.78602
     13702.3   -3.82831
     13705.3   -3.87326
     13708.3   -3.92073
     13711.3   -3.97055
     13714.3   -4.02254
     13717.3   -4.07648
     13720.3   -4.13214
     13723.3   -4.18927
     13726.3   -4.24758
     13729.3   -4.30678
     13732.3   -4.36652
     13735.3   -4.42646
     13738.3   -4.48622
     13741.4   -4.54541
     13744.4   -4.60362
     13747.4   -4.66043
     13750.4   -4.71539
     13753.4   -4.76807
     13756.4   -4.81803
     13759.4   -4.86482
     13762.4   -4.90800
     13765.4   -4.94716
     13768.4   -4.98189
     13771.4   -5.01181
     13774.4   -5.03656
     13777.4   -5.05582
     13780.5   -5.06930
     13783.5   -5.07678
     13786.5   -5.07804
     13789.5   -5.07295
     13792.5   -5.06141
     13795.5   -5.04339
     13798.5   -5.01891
     13801.5   -4.98804
     13804.5   -4.95094
     13807.5   -4.90779
     13810.5   -4.85886
     13813.5   -4.80446
     13816.5   -4.74495
     13819.5   -4.68074
     13822.6   -4.61231
     13825.6   -4.54014
     13828.6   -4.46478
     13831.6   -4.38679
     13834.6   -4.30676
     13837.6   -4.22530
     13840.6   -4.14303
     13843.6   -4.06057
     13846.6   -3.97853
     13849.6   -3.89752
     13852.6   -3.81813
     13855.6   -3.74092
     13858.6   -3.66642
     13861.7   -3.59512
     13864.7   -3.52749
     13867.7   -3.46392
     13870.7   -3.40478
     13873.7   -3.35037
     13876.7   -3.30094
     13879.7   -3.25666
     13882.7   -3.21768
     13885.7   -3.18404
     13888.7   -3.15578
     13891.7   -3.13282
     13894.7   -3.11506
     13897.7   -3.10235
     13900.8   -3.09445
     13903.8   -3.09113
     13906.8   -3.09206
     13909.8   -3.09691
     13912.8   -3.10529
     13915.8   -3.11681
     13918.8   -3.13104
     13921.8   -3.14753
     13924.8   -3.16582
     13927.8   -3.18545
     13930.8   -3.20597
     13933.8   -3.22692
     13936.8   -3.24784
     13939.8   -3.26831
     13942.9   -3.28792
     13945.9   -3.30627
     13948.9   -3.32302
     13951.9   -3.33782
     13954.9   -3.35039
     13957.9   -3.36046
     13960.9   -3.36781
     13963.9   -3.37224
     13966.9   -3.37363
     13969.9   -3.37186
     13972.9   -3.36686
     13975.9   -3.35860
     13978.9   -3.34711
     13982.0   -3.33242
     13985.0   -3.31462
     13988.0   -3.29382
     13991.0   -3.27018
     13994.0   -3.24387
     13997.0   -3.21510
     14000.0   -3.18410
     14003.0   -3.15113
     14006.0   -3.11645
     14009.0   -3.08036
     14012.0   -3.04316
     14015.0   -3.00517
     14018.0   -2.96672
     14021.1   -2.92814
     14024.1   -2.88976
     14027.1   -2.85193
     14030.1   -2.81498
     14033.1   -2.77924
     14036.1   -2.74506
     14039.1   -2.71274
     14042.1   -2.68260
     14045.1   -2.65495
     14048.1   -2.63006
     14051.1   -2.60820
     14054.1   -2.58963
     14057.1   -2.57456
     14060.2   -2.56322
     14063.2   -2.55578
     14066.2   -2.55239
     14069.2   -2.55319
     14072.2   -2.55827
     14075.2   -2.56770
     14078.2   -2.58151
     14081.2   -2.59971
     14084.2   -2.62225
     14087.2   -2.64907
     14090.2   -2.68006
     14093.2   -2.71509
     14096.2   -2.75396
     14099.2   -2.79648
     14102.3   -2.84240
     14105.3   -2.89142
     14108.3   -2.94324
     14111.3   -2.99752
     14114.3   -3.05388
     14117.3   -3.11192
     14120.3   -3.17124
     14123.3   -3.23137
     14126.3   -3.29188
     14129.3   -3.35230
     14132.3   -3.41215
     14135.3   -3.47095
     14138.3   -3.52822
     14141.4   -3.58351
     14144.4   -3.63634
     14147.4   -3.68628
     14150.4   -3.73289
     14153.4   -3.77578
     14156.4   -3.81457
     14159.4   -3.84892
     14162.4   -3.87853
     14165.4   -3.90314
     14168.4   -3.92251
     14171.4   -3.93647
     14174.4   -3.94488
     14177.4   -3.94768
     14180.5   -3.94480
     14183.5   -3.93628
     14186.5   -3.92218
     14189.5   -3.90259
     14192.5   -3.87768
     14195.5   -3.84765
     14198.5   -3.81273
     14201.5   -3.77321
     14204.5   -3.72939
     14207.5   -3.68162
     14210.5   -3.63026
     14213.5   -3.57571
     14216.5   -3.51836
     14219.5   -3.45865
     14222.6   -3.39697
     14225.6   -3.33377
     14228.6   -3.26945
     14231.6   -3.20442
     14234.6   -3.13908
     14237.6   -3.07380
     14240.6   -3.00895
     14243.6   -2.94483
     14246.6   -2.88176
     14249.6   -2.81999
     14252.6   -2.75977
     14255.6   -2.70129
     14258.6   -2.64471
     14261.7   -2.59015
     14264.7   -2.53770
     14267.7   -2.48742
     14270.7   -2.43932
     14273.7   -2.39339
     14276.7   -2.34958
     14279.7   -2.30783
     14282.7   -2.26803
     14285.7   -2.23008
     14288.7   -2.19384
     14291.7   -2.15916
     14294.7   -2.12588
     14297.7   -2.09385
     14300.8   -2.06291
     14303.8   -2.03288
     14306.8   -2.00363
     14309.8   -1.97499
     14312.8   -1.94684
     14315.8   -1.91906
     14318.8   -1.89156
     14321.8   -1.86423
     14324.8   -1.83703
     14327.8   -1.80992
     14330.8   -1.78287
     14333.8   -1.75589
     14336.8   -1.72901
     14339.8   -1.70228
     14342.9   -1.67576
     14345.9   -1.64954
     14348.9   -1.62372
     14351.9   -1.59842
     14354.9   -1.57375
     14357.9   -1.54987
     14360.9   -1.52691
     14363.9   -1.50501
     14366.9   -1.48433
     14369.9   -1.46499
     14372.9   -1.44714
     14375.9   -1.43091
     14378.9   -1.41641
     14382.0   -1.40374
     14385.0   -1.39300
     14388.0   -1.38425
     14391.0   -1.37755
     14394.0   -1.37293
     14397.0   -1.37041
     14400.0   -1.36997
     14403.0   -1.37160
     14406.0   -1.37525
     14409.0   -1.38085
     14412.0   -1.38832
     14415.0   -1.39756
     14418.0   -1.40846
     14421.1   -1.42090
     14424.1   -1.43472
     14427.1   -1.44980
     14430.1   -1.46597
     14433.1   -1.48309
     14436.1   -1.50098
     14439.1   -1.51951
     14442.1   -1.53850
     14445.1   -1.55782
     14448.1   -1.57731
     14451.1   -1.59686
     14454.1   -1.61632
     14457.1   -1.63559
     14460.2   -1.65457
     14463.2   -1.67317
     14466.2   -1.69132
     14469.2   -1.70896
     14472.2   -1.72604
     14475.2   -1.74253
     14478.2   -1.75842
     14481.2   -1.77369
     14484.2   -1.78835
     14487.2   -1.80242
     14490.2   -1.81592
     14493.2   -1.82888
     14496.2   -1.84135
     14499.2   -1.85336
     14502.3   -1.86497
     14505.3   -1.87621
     14508.3   -1.88715
     14511.3   -1.89782
     14514.3   -1.90828
     14517.3   -1.91856
     14520.3   -1.92870
     14523.3   -1.93874
     14526.3   -1.94870
     14529.3   -1.95860
     14532.3   -1.96846
     14535.3   -1.97827
     14538.3   -1.98805
     14541.4   -1.99776
     14544.4   -2.00741
     14547.4   -2.01697
     14550.4   -2.02641
     14553.4   -2.03570
     14556.4   -2.04479
     14559.4   -2.05364
     14562.4   -2.06221
     14565.4   -2.07046
     14568.4   -2.07832
     14571.4   -2.08574
     14574.4   -2.09269
     14577.4   -2.09910
     14580.5   -2.10493
     14583.5   -2.11013
     14586.5   -2.11466
     14589.5   -2.11847
     14592.5   -2.12153
     14595.5   -2.12379
     14598.5   -2.12524
     14601.5   -2.12583
     14604.5   -2.12555
     14607.5   -2.12437
     14610.5   -2.12227
     14613.5   -2.11924
     14616.5   -2.11527
     14619.5   -2.11035
     14622.6   -2.10447
     14625.6   -2.09762
     14628.6   -2.08980
     14631.6   -2.08102
     14634.6   -2.07127
     14637.6   -2.06056
     14640.6   -2.04889
     14643.6   -2.03626
     14646.6   -2.02268
     14649.6   -2.00816
     14652.6   -1.99272
     14655.6   -1.97636
     14658.6   -1.95909
     14661.7   -1.94095
     14664.7   -1.92195
     14667.7   -1.90211
     14670.7   -1.88147
     14673.7   -1.86005
     14676.7   -1.83790
     14679.7   -1.81506
     14682.7   -1.79157
     14685.7   -1.76749
     14688.7   -1.74287
     14691.7   -1.71779
     14694.7   -1.69230
     14697.7   -1.66649
     14700.8   -1.64043
     14703.8   -1.61421
     14706.8   -1.58791
     14709.8   -1.56163
     14712.8   -1.53546
     14715.8   -1.50950
     14718.8   -1.48385
     14721.8   -1.45860
     14724.8   -1.43385
     14727.8   -1.40970
     14730.8   -1.38625
     14733.8   -1.36359
     14736.8   -1.34179
     14739.8   -1.32095
     14742.9   -1.30114
     14745.9   -1.28242
     14748.9   -1.26486
     14751.9   -1.24851
     14754.9   -1.23341
     14757.9   -1.21959
     14760.9   -1.20709
     14763.9   -1.19590
     14766.9   -1.18604
     14769.9   -1.17750
     14772.9   -1.17025
     14775.9   -1.16429
     14778.9   -1.15957
     14782.0   -1.15605
     14785.0   -1.15368
     14788.0   -1.15239
     14791.0   -1.15214
     14794.0   -1.15285
     14797.0   -1.15444
     14800.0   -1.15684
     14803.0   -1.15998
     14806.0   -1.16377
     14809.0   -1.16813
     14812.0   -1.17299
     14815.0   -1.17827
     14818.0   -1.18388
     14821.1   -1.18977
     14824.1   -1.19586
     14827.1   -1.20207
     14830.1   -1.20837
     14833.1   -1.21468
     14836.1   -1.22096
     14839.1   -1.22716
     14842.1   -1.23324
     14845.1   -1.23917
     14848.1   -1.24491
     14851.1   -1.25044
     14854.1   -1.25573
     14857.1   -1.26078
     14860.2   -1.26555
     14863.2   -1.27005
     14866.2   -1.27425
     14869.2   -1.27817
     14872.2   -1.28178
     14875.2   -1.28509
     14878.2   -1.28810
     14881.2   -1.29079
     14884.2   -1.29318
     14887.2   -1.29526
     14890.2   -1.29703
     14893.2   -1.29849
     14896.2   -1.29964
     14899.2   -1.30048
     14902.3   -1.30100
     14905.3   -1.30121
     14908.3   -1.30111
     14911.3   -1.30071
     14914.3   -1.29999
     14917.3   -1.29898
     14920.3   -1.29767
     14923.3   -1.29608
     14926.3   -1.29421
     14929.3   -1.29208
     14932.3   -1.28970
     14935.3   -1.28709
     14938.3   -1.28428
     14941.4   -1.28129
     14944.4   -1.27816
     14947.4   -1.27490
     14950.4   -1.27156
     14953.4   -1.26818
     14956.4   -1.26478
     14959.4   -1.26143
     14962.4   -1.25816
     14965.4   -1.25501
     14968.4   -1.25203
     14971.4   -1.24927
     14974.4   -1.24678
     14977.4   -1.24459
     14980.5   -1.24274
     14983.5   -1.24129
     14986.5   -1.24027
     14989.5   -1.23971
     14992.5   -1.23964
     14995.5   -1.24009
     14998.5   -1.24108
     15001.5   -1.24263
     15004.5   -1.24476
     15007.5   -1.24746
     15010.5   -1.25074
     15013.5   -1.25460
     15016.5   -1.25903
     15019.5   -1.26402
     15022.6   -1.26956
     15025.6   -1.27561
     15028.6   -1.28216
     15031.6   -1.28918
     15034.6   -1.29664
     15037.6   -1.30451
     15040.6   -1.31276
     15043.6   -1.32135
     15046.6   -1.33025
     15049.6   -1.33943
     15052.6   -1.34885
     15055.6   -1.35848
     15058.6   -1.36829
     15061.7   -1.37826
     15064.7   -1.38837
     15067.7   -1.39858
     15070.7   -1.40888
     15073.7   -1.41926
     15076.7   -1.42970
     15079.7   -1.44019
     15082.7   -1.45072
     15085.7   -1.46130
     15088.7   -1.47191
     15091.7   -1.48257
     15094.7   -1.49326
     15097.7   -1.50401
     15100.8   -1.51481
     15103.8   -1.52566
     15106.8   -1.53659
     15109.8   -1.54759
     15112.8   -1.55868
     15115.8   -1.56986
     15118.8   -1.58114
     15121.8   -1.59254
     15124.8   -1.60405
     15127.8   -1.61569
     15130.8   -1.62746
     15133.8   -1.63937
     15136.8   -1.65143
     15139.8   -1.66365
     15142.9   -1.67602
     15145.9   -1.68856
     15148.9   -1.70127
     15151.9   -1.71416
     15154.9   -1.72724
     15157.9   -1.74051
     15160.9   -1.75400
     15163.9   -1.76771
     15166.9   -1.78165
     15169.9   -1.79583
     15172.9   -1.81029
     15175.9   -1.82501
     15178.9   -1.84004
     15182.0   -1.85538
     15185.0   -1.87105
     15188.0   -1.88707
     15191.0   -1.90346
     15194.0   -1.92023
     15197.0   -1.93740
     15200.0   -1.95497
     15203.0   -1.97296
     15206.0   -1.99137
     15209.0   -2.01021
     15212.0   -2.02945
     15215.0   -2.04910
     15218.0   -2.06914
     15221.1   -2.08955
     15224.1   -2.11029
     15227.1   -2.13134
     15230.1   -2.15264
     15233.1   -2.17415
     15236.1   -2.19582
     15239.1   -2.21758
     15242.1   -2.23937
     15245.1   -2.26111
     15248.1   -2.28274
     15251.1   -2.30417
     15254.1   -2.32532
     15257.1   -2.34613
     15260.2   -2.36651
     15263.2   -2.38639
     15266.2   -2.40570
     15269.2   -2.42437
     15272.2   -2.44235
     15275.2   -2.45960
     15278.2   -2.47607
     15281.2   -2.49174
     15284.2   -2.50660
     15287.2   -2.52064
     15290.2   -2.53388
     15293.2   -2.54635
     15296.2   -2.55809
     15299.2   -2.56917
     15302.3   -2.57964
     15305.3   -2.58961
     15308.3   -2.59917
     15311.3   -2.60844
     15314.3   -2.61753
     15317.3   -2.62658
     15320.3   -2.63574
     15323.3   -2.64514
     15326.3   -2.65493
     15329.3   -2.66527
     15332.3   -2.67629
     15335.3   -2.68815
     15338.3   -2.70097
     15341.4   -2.71489
     15344.4   -2.73002
     15347.4   -2.74645
     15350.4   -2.76428
     15353.4   -2.78356
     15356.4   -2.80434
     15359.4   -2.82666
     15362.4   -2.85050
     15365.4   -2.87586
     15368.4   -2.90268
     15371.4   -2.93090
     15374.4   -2.96043
     15377.4   -2.99117
     15380.5   -3.02297
     15383.5   -3.05571
     15386.5   -3.08920
     15389.5   -3.12327
     15392.5   -3.15773
     15395.5   -3.19239
     15398.5   -3.22704
     15401.5   -3.26147
     15404.5   -3.29549
     15407.5   -3.32890
     15410.5   -3.36150
     15413.5   -3.39313
     15416.5   -3.42363
     15419.5   -3.45284
     15422.6   -3.48064
     15425.6   -3.50695
     15428.6   -3.53168
     15431.6   -3.55479
     15434.6   -3.57625
     15437.6   -3.59609
     15440.6   -3.61434
     15443.6   -3.63106
     15446.6   -3.64636
     15449.6   -3.66035
     15452.6   -3.67318
     15455.6   -3.68502
     15458.6   -3.69606
     15461.7   -3.70650
     15464.7   -3.71657
     15467.7   -3.72648
     15470.7   -3.73648
     15473.7   -3.74680
     15476.7   -3.75767
     15479.7   -3.76931
     15482.7   -3.78195
     15485.7   -3.79577
     15488.7   -3.81096
     15491.7   -3.82769
     15494.7   -3.84608
     15497.7   -3.86623
     15500.8   -3.88823
     15503.8   -3.91212
     15506.8   -3.93790
     15509.8   -3.96556
     15512.8   -3.99504
     15515.8   -4.02623
     15518.8   -4.05902
     15521.8   -4.09326
     15524.8   -4.12875
     15527.8   -4.16528
     15530.8   -4.20261
     15533.8   -4.24049
     15536.8   -4.27865
     15539.8   -4.31679
     15542.9   -4.35462
     15545.9   -4.39185
     15548.9   -4.42817
     15551.9   -4.46330
     15554.9   -4.49694
     15557.9   -4.52884
     15560.9   -4.55873
     15563.9   -4.58639
     15566.9   -4.61162
     15569.9   -4.63423
     15572.9   -4.65409
     15575.9   -4.67108
     15578.9   -4.68513
     15582.0   -4.69620
     15585.0   -4.70428
     15588.0   -4.70940
     15591.0   -4.71164
     15594.0   -4.71110
     15597.0   -4.70792
     15600.0   -4.70226
     15603.0   -4.69433
     15606.0   -4.68434
     15609.0   -4.67254
     15612.0   -4.65921
     15615.0   -4.64461
     15618.0   -4.62904
     15621.1   -4.61281
     15624.1   -4.59621
     15627.1   -4.57954
     15630.1   -4.56311
     15633.1   -4.54720
     15636.1   -4.53208
     15639.1   -4.51803
     15642.1   -4.50528
     15645.1   -4.49405
     15648.1   -4.48455
     15651.1   -4.47694
     15654.1   -4.47138
     15657.1   -4.46797
     15660.2   -4.46682
     15663.2   -4.46798
     15666.2   -4.47148
     15669.2   -4.47732
     15672.2   -4.48550
     15675.2   -4.49594
     15678.2   -4.50860
     15681.2   -4.52336
     15684.2   -4.54011
     15687.2   -4.55873
     15690.2   -4.57905
     15693.2   -4.60092
     15696.2   -4.62418
     15699.2   -4.64862
     15702.3   -4.67408
     15705.3   -4.70035
     15708.3   -4.72725
     15711.3   -4.75459
     15714.3   -4.78218
     15717.3   -4.80985
     15720.3   -4.83740
     15723.3   -4.86469
     15726.3   -4.89155
     15729.3   -4.91782
     15732.3   -4.94338
     15735.3   -4.96810
     15738.3   -4.99185
     15741.4   -5.01454
     15744.4   -5.03608
     15747.4   -5.05637
     15750.4   -5.07535
     15753.4   -5.09295
     15756.4   -5.10912
     15759.4   -5.12383
     15762.4   -5.13702
     15765.4   -5.14868
     15768.4   -5.15878
     15771.4   -5.16731
     15774.4   -5.17425
     15777.4   -5.17961
     15780.5   -5.18337
     15783.5   -5.18554
     15786.5   -5.18614
     15789.5   -5.18517
     15792.5   -5.18264
     15795.5   -5.17858
     15798.5   -5.17300
     15801.5   -5.16594
     15804.5   -5.15741
     15807.5   -5.14746
     15810.5   -5.13612
     15813.5   -5.12343
     15816.5   -5.10944
     15819.5   -5.09420
     15822.6   -5.07777
     15825.6   -5.06020
     15828.6   -5.04158
     15831.6   -5.02197
     15834.6   -5.00145
     15837.6   -4.98010
     15840.6   -4.95801
     15843.6   -4.93529
     15846.6   -4.91201
     15849.6   -4.88830
     15852.6   -4.86424
     15855.6   -4.83996
     15858.6   -4.81555
     15861.7   -4.79113
     15864.7   -4.76680
     15867.7   -4.74268
     15870.7   -4.71887
     15873.7   -4.69548
     15876.7   -4.67259
     15879.7   -4.65031
     15882.7   -4.62873
     15885.7   -4.60792
     15888.7   -4.58795
     15891.7   -4.56890
     15894.7   -4.55082
     15897.7   -4.53375
     15900.8   -4.51773
     15903.8   -4.50278
     15906.8   -4.48892
     15909.8   -4.47616
     15912.8   -4.46448
     15915.8   -4.45386
     15918.8   -4.44429
     15921.8   -4.43572
     15924.8   -4.42811
     15927.8   -4.42139
     15930.8   -4.41551
     15933.8   -4.41040
     15936.8   -4.40597
     15939.8   -4.40214
     15942.9   -4.39883
     15945.9   -4.39595
     15948.9   -4.39339
     15951.9   -4.39107
     15954.9   -4.38888
     15957.9   -4.38673
     15960.9   -4.38453
     15963.9   -4.38219
     15966.9   -4.37961
     15969.9   -4.37671
     15972.9   -4.37341
     15975.9   -4.36964
     15978.9   -4.36533
     15982.0   -4.36041
     15985.0   -4.35485
     15988.0   -4.34858
     15991.0   -4.34157
     15994.0   -4.33380
     15997.0   -4.32525
     16000.0   -4.31591
     16003.0   -4.30577
     16006.0   -4.29485
     16009.0   -4.28315
     16012.0   -4.27072
     16015.0   -4.25757
     16018.0   -4.24376
     16021.1   -4.22933
     16024.1   -4.21435
     16027.1   -4.19886
     16030.1   -4.18295
     16033.1   -4.16669
     16036.1   -4.15015
     16039.1   -4.13342
     16042.1   -4.11659
     16045.1   -4.09973
     16048.1   -4.08294
     16051.1   -4.06630
     16054.1   -4.04990
     16057.1   -4.03383
     16060.2   -4.01815
     16063.2   -4.00296
     16066.2   -3.98832
     16069.2   -3.97429
     16072.2   -3.96093
     16075.2   -3.94830
     16078.2   -3.93643
     16081.2   -3.92536
     16084.2   -3.91512
     16087.2   -3.90572
     16090.2   -3.89716
     16093.2   -3.88944
     16096.2   -3.88254
     16099.2   -3.87644
     16102.3   -3.87111
     16105.3   -3.86649
     16108.3   -3.86255
     16111.3   -3.85920
     16114.3   -3.85640
     16117.3   -3.85406
     16120.3   -3.85211
     16123.3   -3.85047
     16126.3   -3.84904
     16129.3   -3.84775
     16132.3   -3.84650
     16135.3   -3.84521
     16138.3   -3.84379
     16141.4   -3.84218
     16144.4   -3.84028
     16147.4   -3.83804
     16150.4   -3.83540
     16153.4   -3.83229
     16156.4   -3.82869
     16159.4   -3.82454
     16162.4   -3.81984
     16165.4   -3.81456
     16168.4   -3.80871
     16171.4   -3.80229
     16174.4   -3.79533
     16177.4   -3.78785
     16180.5   -3.77989
     16183.5   -3.77149
     16186.5   -3.76273
     16189.5   -3.75365
     16192.5   -3.74432
     16195.5   -3.73482
     16198.5   -3.72521
     16201.5   -3.71559
     16204.5   -3.70601
     16207.5   -3.69656
     16210.5   -3.68731
     16213.5   -3.67831
     16216.5   -3.66963
     16219.5   -3.66133
     16222.6   -3.65344
     16225.6   -3.64601
     16228.6   -3.63904
     16231.6   -3.63256
     16234.6   -3.62657
     16237.6   -3.62106
     16240.6   -3.61601
     16243.6   -3.61138
     16246.6   -3.60714
     16249.6   -3.60322
     16252.6   -3.59958
     16255.6   -3.59614
     16258.6   -3.59283
     16261.7   -3.58957
     16264.7   -3.58628
     16267.7   -3.58286
     16270.7   -3.57924
     16273.7   -3.57534
     16276.7   -3.57107
     16279.7   -3.56637
     16282.7   -3.56116
     16285.7   -3.55540
     16288.7   -3.54903
     16291.7   -3.54202
     16294.7   -3.53434
     16297.7   -3.52599
     16300.8   -3.51697
     16303.8   -3.50730
     16306.8   -3.49701
     16309.8   -3.48615
     16312.8   -3.47479
     16315.8   -3.46299
     16318.8   -3.45085
     16321.8   -3.43847
     16324.8   -3.42596
     16327.8   -3.41343
     16330.8   -3.40101
     16333.8   -3.38883
     16336.8   -3.37704
     16339.8   -3.36575
     16342.9   -3.35512
     16345.9   -3.34528
     16348.9   -3.33634
     16351.9   -3.32845
     16354.9   -3.32170
     16357.9   -3.31622
     16360.9   -3.31208
     16363.9   -3.30937
     16366.9   -3.30816
     16369.9   -3.30850
     16372.9   -3.31043
     16375.9   -3.31397
     16378.9   -3.31912
     16382.0   -3.32586
     16385.0   -3.33419
     16388.0   -3.34404
     16391.0   -3.35536
     16394.0   -3.36808
     16397.0   -3.38212
     16400.0   -3.39738
     16403.0   -3.41375
     16406.0   -3.43112
     16409.0   -3.44937
     16412.0   -3.46836
     16415.0   -3.48798
     16418.0   -3.50807
     16421.1   -3.52852
     16424.1   -3.54917
     16427.1   -3.56991
     16430.1   -3.59060
     16433.1   -3.61113
     16436.1   -3.63136
     16439.1   -3.65120
     16442.1   -3.67053
     16445.1   -3.68927
     16448.1   -3.70733
     16451.1   -3.72463
     16454.1   -3.74110
     16457.1   -3.75669
     16460.2   -3.77135
     16463.2   -3.78503
     16466.2   -3.79772
     16469.2   -3.80937
     16472.2   -3.81999
     16475.2   -3.82956
     16478.2   -3.83809
     16481.2   -3.84557
     16484.2   -3.85203
     16487.2   -3.85747
     16490.2   -3.86193
     16493.2   -3.86542
     16496.2   -3.86797
     16499.2   -3.86962
     16502.3   -3.87040
     16505.3   -3.87035
     16508.3   -3.86950
     16511.3   -3.86790
     16514.3   -3.86559
     16517.3   -3.86261
     16520.3   -3.85900
     16523.3   -3.85482
     16526.3   -3.85011
     16529.3   -3.84491
     16532.3   -3.83928
     16535.3   -3.83327
     16538.3   -3.82693
     16541.4   -3.82031
     16544.4   -3.81348
     16547.4   -3.80647
     16550.4   -3.79936
     16553.4   -3.79219
     16556.4   -3.78502
     16559.4   -3.77792
     16562.4   -3.77093
     16565.4   -3.76412
     16568.4   -3.75754
     16571.4   -3.75123
     16574.4   -3.74527
     16577.4   -3.73968
     16580.5   -3.73452
     16583.5   -3.72984
     16586.5   -3.72566
     16589.5   -3.72203
     16592.5   -3.71898
     16595.5   -3.71652
     16598.5   -3.71468
     16601.5   -3.71348
     16604.5   -3.71291
     16607.5   -3.71300
     16610.5   -3.71372
     16613.5   -3.71507
     16616.5   -3.71705
     16619.5   -3.71962
     16622.6   -3.72277
     16625.6   -3.72648
     16628.6   -3.73070
     16631.6   -3.73540
     16634.6   -3.74056
     16637.6   -3.74612
     16640.6   -3.75205
     16643.6   -3.75830
     16646.6   -3.76484
     16649.6   -3.77161
     16652.6   -3.77859
     16655.6   -3.78573
     16658.6   -3.79299
     16661.7   -3.80034
     16664.7   -3.80774
     16667.7   -3.81517
     16670.7   -3.82258
     16673.7   -3.82997
     16676.7   -3.83730
     16679.7   -3.84456
     16682.7   -3.85174
     16685.7   -3.85881
     16688.7   -3.86576
     16691.7   -3.87259
     16694.7   -3.87930
     16697.7   -3.88587
     16700.8   -3.89230
     16703.8   -3.89859
     16706.8   -3.90474
     16709.8   -3.91075
     16712.8   -3.91662
     16715.8   -3.92236
     16718.8   -3.92796
     16721.8   -3.93343
     16724.8   -3.93877
     16727.8   -3.94399
     16730.8   -3.94909
     16733.8   -3.95408
     16736.8   -3.95898
     16739.8   -3.96378
     16742.9   -3.96851
     16745.9   -3.97318
     16748.9   -3.97781
     16751.9   -3.98241
     16754.9   -3.98700
     16757.9   -3.99163
     16760.9   -3.99630
     16763.9   -4.00106
     16766.9   -4.00594
     16769.9   -4.01096
     16772.9   -4.01618
     16775.9   -4.02164
     16778.9   -4.02736
     16782.0   -4.03339
     16785.0   -4.03977
     16788.0   -4.04654
     16791.0   -4.05374
     16794.0   -4.06138
     16797.0   -4.06951
     16800.0   -4.07814
     16803.0   -4.08728
     16806.0   -4.09694
     16809.0   -4.10711
     16812.0   -4.11779
     16815.0   -4.12895
     16818.0   -4.14056
     16821.1   -4.15256
     16824.1   -4.16491
     16827.1   -4.17754
     16830.1   -4.19035
     16833.1   -4.20328
     16836.1   -4.21621
     16839.1   -4.22904
     16842.1   -4.24165
     16845.1   -4.25392
     16848.1   -4.26572
     16851.1   -4.27694
     16854.1   -4.28743
     16857.1   -4.29707
     16860.2   -4.30574
     16863.2   -4.31333
     16866.2   -4.31974
     16869.2   -4.32486
     16872.2   -4.32862
     16875.2   -4.33096
     16878.2   -4.33182
     16881.2   -4.33119
     16884.2   -4.32906
     16887.2   -4.32544
     16890.2   -4.32038
     16893.2   -4.31394
     16896.2   -4.30620
     16899.2   -4.29728
     16902.3   -4.28730
     16905.3   -4.27641
     16908.3   -4.26479
     16911.3   -4.25262
     16914.3   -4.24009
     16917.3   -4.22743
     16920.3   -4.21484
     16923.3   -4.20256
     16926.3   -4.19079
     16929.3   -4.17978
     16932.3   -4.16972
     16935.3   -4.16082
     16938.3   -4.15327
     16941.4   -4.14725
     16944.4   -4.14289
     16947.4   -4.14033
     16950.4   -4.13967
     16953.4   -4.14098
     16956.4   -4.14429
     16959.4   -4.14961
     16962.4   -4.15693
     16965.4   -4.16617
     16968.4   -4.17726
     16971.4   -4.19006
     16974.4   -4.20443
     16977.4   -4.22020
     16980.5   -4.23715
     16983.5   -4.25506
     16986.5   -4.27369
     16989.5   -4.29279
     16992.5   -4.31208
     16995.5   -4.33131
     16998.5   -4.35018
     17001.5   -4.36845
     17004.5   -4.38584
     17007.5   -4.40212
     17010.5   -4.41706
     17013.5   -4.43046
     17016.5   -4.44212
     17019.5   -4.45190
     17022.6   -4.45969
     17025.6   -4.46539
     17028.6   -4.46895
     17031.6   -4.47035
     17034.6   -4.46960
     17037.6   -4.46678
     17040.6   -4.46195
     17043.6   -4.45524
     17046.6   -4.44679
     17049.6   -4.43679
     17052.6   -4.42543
     17055.6   -4.41291
     17058.6   -4.39948
     17061.7   -4.38538
     17064.7   -4.37085
     17067.7   -4.35614
     17070.7   -4.34149
     17073.7   -4.32713
     17076.7   -4.31329
     17079.7   -4.30017
     17082.7   -4.28796
     17085.7   -4.27680
     17088.7   -4.26684
     17091.7   -4.25818
     17094.7   -4.25088
     17097.7   -4.24500
     17100.8   -4.24054
     17103.8   -4.23747
     17106.8   -4.23576
     17109.8   -4.23533
     17112.8   -4.23607
     17115.8   -4.23786
     17118.8   -4.24056
     17121.8   -4.24402
     17124.8   -4.24807
     17127.8   -4.25254
     17130.8   -4.25726
     17133.8   -4.26206
     17136.8   -4.26679
     17139.8   -4.27129
     17142.9   -4.27543
     17145.9   -4.27910
     17148.9   -4.28222
     17151.9   -4.28472
     17154.9   -4.28656
     17157.9   -4.28773
     17160.9   -4.28824
     17163.9   -4.28816
     17166.9   -4.28754
     17169.9   -4.28649
     17172.9   -4.28513
     17175.9   -4.28359
     17178.9   -4.28204
     17182.0   -4.28063
     17185.0   -4.27955
     17188.0   -4.27897
     17191.0   -4.27906
     17194.0   -4.27998
     17197.0   -4.28190
     17200.0   -4.28494
     17203.0   -4.28921
     17206.0   -4.29480
     17209.0   -4.30177
     17212.0   -4.31013
     17215.0   -4.31987
     17218.0   -4.33093
     17221.1   -4.34323
     17224.1   -4.35664
     17227.1   -4.37098
     17230.1   -4.38607
     17233.1   -4.40166
     17236.1   -4.41749
     17239.1   -4.43328
     17242.1   -4.44873
     17245.1   -4.46350
     17248.1   -4.47727
     17251.1   -4.48972
     17254.1   -4.50052
     17257.1   -4.50937
     17260.2   -4.51596
     17263.2   -4.52005
     17266.2   -4.52140
     17269.2   -4.51982
     17272.2   -4.51516
     17275.2   -4.50733
     17278.2   -4.49627
     17281.2   -4.48200
     17284.2   -4.46459
     17287.2   -4.44416
     17290.2   -4.42088
     17293.2   -4.39501
     17296.2   -4.36683
     17299.2   -4.33667
     17302.3   -4.30492
     17305.3   -4.27201
     17308.3   -4.23838
     17311.3   -4.20452
     17314.3   -4.17091
     17317.3   -4.13805
     17320.3   -4.10645
     17323.3   -4.07659
     17326.3   -4.04894
     17329.3   -4.02393
     17332.3   -4.00197
     17335.3   -3.98341
     17338.3   -3.96855
     17341.4   -3.95764
     17344.4   -3.95086
     17347.4   -3.94831
     17350.4   -3.95004
     17353.4   -3.95601
     17356.4   -3.96612
     17359.4   -3.98019
     17362.4   -3.99797
     17365.4   -4.01915
     17368.4   -4.04336
     17371.4   -4.07016
     17374.4   -4.09908
     17377.4   -4.12961
     17380.5   -4.16121
     17383.5   -4.19332
     17386.5   -4.22536
     17389.5   -4.25677
     17392.5   -4.28700
     17395.5   -4.31551
     17398.5   -4.34180
     17401.5   -4.36543
     17404.5   -4.38599
     17407.5   -4.40313
     17410.5   -4.41658
     17413.5   -4.42615
     17416.5   -4.43169
     17419.5   -4.43318
     17422.6   -4.43064
     17425.6   -4.42420
     17428.6   -4.41405
     17431.6   -4.40047
     17434.6   -4.38380
     17437.6   -4.36446
     17440.6   -4.34292
     17443.6   -4.31969
     17446.6   -4.29535
     17449.6   -4.27047
     17452.6   -4.24568
     17455.6   -4.22158
     17458.6   -4.19879
     17461.7   -4.17791
     17464.7   -4.15950
     17467.7   -4.14410
     17470.7   -4.13219
     17473.7   -4.12419
     17476.7   -4.12046
     17479.7   -4.12128
     17482.7   -4.12685
     17485.7   -4.13730
     17488.7   -4.15265
     17491.7   -4.17285
     17494.7   -4.19775
     17497.7   -4.22713
     17500.8   -4.26067
     17503.8   -4.29797
     17506.8   -4.33859
     17509.8   -4.38200
     17512.8   -4.42761
     17515.8   -4.47482
     17518.8   -4.52297
     17521.8   -4.57138
     17524.8   -4.61939
     17527.8   -4.66630
     17530.8   -4.71146
     17533.8   -4.75423
     17536.8   -4.79402
     17539.8   -4.83027
     17542.9   -4.86249
     17545.9   -4.89026
     17548.9   -4.91323
     17551.9   -4.93113
     17554.9   -4.94378
     17557.9   -4.95106
     17560.9   -4.95298
     17563.9   -4.94961
     17566.9   -4.94110
     17569.9   -4.92771
     17572.9   -4.90976
     17575.9   -4.88762
     17578.9   -4.86177
     17582.0   -4.83270
     17585.0   -4.80097
     17588.0   -4.76716
     17591.0   -4.73188
     17594.0   -4.69575
     17597.0   -4.65939
     17600.0   -4.62340
     17603.0   -4.58837
     17606.0   -4.55486
     17609.0   -4.52337
     17612.0   -4.49437
     17615.0   -4.46825
     17618.0   -4.44534
     17621.1   -4.42592
     17624.1   -4.41016
     17627.1   -4.39819
     17630.1   -4.39004
     17633.1   -4.38567
     17636.1   -4.38496
     17639.1   -4.38772
     17642.1   -4.39370
     17645.1   -4.40259
     17648.1   -4.41402
     17651.1   -4.42758
     17654.1   -4.44282
     17657.1   -4.45926
     17660.2   -4.47642
     17663.2   -4.49379
     17666.2   -4.51088
     17669.2   -4.52720
     17672.2   -4.54231
     17675.2   -4.55575
     17678.2   -4.56716
     17681.2   -4.57618
     17684.2   -4.58253
     17687.2   -4.58596
     17690.2   -4.58632
     17693.2   -4.58349
     17696.2   -4.57744
     17699.2   -4.56819
     17702.3   -4.55583
     17705.3   -4.54051
     17708.3   -4.52244
     17711.3   -4.50189
     17714.3   -4.47917
     17717.3   -4.45462
     17720.3   -4.42864
     17723.3   -4.40164
     17726.3   -4.37404
     17729.3   -4.34628
     17732.3   -4.31880
     17735.3   -4.29202
     17738.3   -4.26636
     17741.4   -4.24219
     17744.4   -4.21988
     17747.4   -4.19974
     17750.4   -4.18203
     17753.4   -4.16698
     17756.4   -4.15475
     17759.4   -4.14546
     17762.4   -4.13917
     17765.4   -4.13585
     17768.4   -4.13547
     17771.4   -4.13789
     17774.4   -4.14295
     17777.4   -4.15043
     17780.5   -4.16007
     17783.5   -4.17156
     17786.5   -4.18457
     17789.5   -4.19873
     17792.5   -4.21365
     17795.5   -4.22895
     17798.5   -4.24421
     17801.5   -4.25903
     17804.5   -4.27302
     17807.5   -4.28580
     17810.5   -4.29700
     17813.5   -4.30630
     17816.5   -4.31339
     17819.5   -4.31801
     17822.6   -4.31992
     17825.6   -4.31893
     17828.6   -4.31492
     17831.6   -4.30776
     17834.6   -4.29742
     17837.6   -4.28388
     17840.6   -4.26716
     17843.6   -4.24734
     17846.6   -4.22452
     17849.6   -4.19884
     17852.6   -4.17045
     17855.6   -4.13957
     17858.6   -4.10638
     17861.7   -4.07112
     17864.7   -4.03402
     17867.7   -3.99530
     17870.7   -3.95522
     17873.7   -3.91401
     17876.7   -3.87187
     17879.7   -3.82903
     17882.7   -3.78568
     17885.7   -3.74199
     17888.7   -3.69812
     17891.7   -3.65420
     17894.7   -3.61035
     17897.7   -3.56665
     17900.8   -3.52317
     17903.8   -3.47996
     17906.8   -3.43704
     17909.8   -3.39442
     17912.8   -3.35210
     17915.8   -3.31007
     17918.8   -3.26830
     17921.8   -3.22676
     17924.8   -3.18543
     17927.8   -3.14429
     17930.8   -3.10330
     17933.8   -3.06248
     17936.8   -3.02181
     17939.8   -2.98131
     17942.9   -2.94102
     17945.9   -2.90100
     17948.9   -2.86132
     17951.9   -2.82206
     17954.9   -2.78336
     17957.9   -2.74534
     17960.9   -2.70817
     17963.9   -2.67201
     17966.9   -2.63705
     17969.9   -2.60349
     17972.9   -2.57156
     17975.9   -2.54146
     17978.9   -2.51342
     17982.0   -2.48766
     17985.0   -2.46439
     17988.0   -2.44382
     17991.0   -2.42614
     17994.0   -2.41152
     17997.0   -2.40012
     18000.0   -2.39207
     18003.0   -2.38746
     18006.0   -2.38636
     18009.0   -2.38882
     18012.0   -2.39483
     18015.0   -2.40436
     18018.0   -2.41734
     18021.1   -2.43367
     18024.1   -2.45320
     18027.1   -2.47577
     18030.1   -2.50117
     18033.1   -2.52918
     18036.1   -2.55951
     18039.1   -2.59191
     18042.1   -2.62607
     18045.1   -2.66167
     18048.1   -2.69840
     18051.1   -2.73593
     18054.1   -2.77394
     18057.1   -2.81209
     18060.2   -2.85010
     18063.2   -2.88765
     18066.2   -2.92447
     18069.2   -2.96031
     18072.2   -2.99494
     18075.2   -3.02817
     18078.2   -3.05983
     18081.2   -3.08978
     18084.2   -3.11795
     18087.2   -3.14426
     18090.2   -3.16871
     18093.2   -3.19130
     18096.2   -3.21209
     18099.2   -3.23118
     18102.3   -3.24867
     18105.3   -3.26472
     18108.3   -3.27950
     18111.3   -3.29322
     18114.3   -3.30610
     18117.3   -3.31835
     18120.3   -3.33024
     18123.3   -3.34200
     18126.3   -3.35390
     18129.3   -3.36617
     18132.3   -3.37906
     18135.3   -3.39280
     18138.3   -3.40760
     18141.4   -3.42365
     18144.4   -3.44112
     18147.4   -3.46015
     18150.4   -3.48087
     18153.4   -3.50334
     18156.4   -3.52763
     18159.4   -3.55376
     18162.4   -3.58170
     18165.4   -3.61140
     18168.4   -3.64280
     18171.4   -3.67576
     18174.4   -3.71015
     18177.4   -3.74580
     18180.5   -3.78250
     18183.5   -3.82003
     18186.5   -3.85816
     18189.5   -3.89663
     18192.5   -3.93517
     18195.5   -3.97351
     18198.5   -4.01135
     18201.5   -4.04843
     18204.5   -4.08447
     18207.5   -4.11919
     18210.5   -4.15234
     18213.5   -4.18368
     18216.5   -4.21298
     18219.5   -4.24004
     18222.6   -4.26469
     18225.6   -4.28676
     18228.6   -4.30615
     18231.6   -4.32275
     18234.6   -4.33650
     18237.6   -4.34738
     18240.6   -4.35538
     18243.6   -4.36054
     18246.6   -4.36292
     18249.6   -4.36261
     18252.6   -4.35974
     18255.6   -4.35444
     18258.6   -4.34689
     18261.7   -4.33727
     18264.7   -4.32580
     18267.7   -4.31270
     18270.7   -4.29819
     18273.7   -4.28252
     18276.7   -4.26593
     18279.7   -4.24866
     18282.7   -4.23095
     18285.7   -4.21304
     18288.7   -4.19513
     18291.7   -4.17745
     18294.7   -4.16018
     18297.7   -4.14348
     18300.8   -4.12751
     18303.8   -4.11238
     18306.8   -4.09819
     18309.8   -4.08500
     18312.8   -4.07284
     18315.8   -4.06173
     18318.8   -4.05164
     18321.8   -4.04251
     18324.8   -4.03426
     18327.8   -4.02676
     18330.8   -4.01990
     18333.8   -4.01349
     18336.8   -4.00735
     18339.8   -4.00129
     18342.9   -3.99506
     18345.9   -3.98845
     18348.9   -3.98120
     18351.9   -3.97306
     18354.9   -3.96379
     18357.9   -3.95313
     18360.9   -3.94084
     18363.9   -3.92669
     18366.9   -3.91046
     18369.9   -3.89194
     18372.9   -3.87097
     18375.9   -3.84739
     18378.9   -3.82108
     18382.0   -3.79193
     18385.0   -3.75989
     18388.0   -3.72494
     18391.0   -3.68707
     18394.0   -3.64634
     18397.0   -3.60283
     18400.0   -3.55666
     18403.0   -3.50798
     18406.0   -3.45698
     18409.0   -3.40388
     18412.0   -3.34894
     18415.0   -3.29243
     18418.0   -3.23466
     18421.1   -3.17596
     18424.1   -3.11665
     18427.1   -3.05710
     18430.1   -2.99767
     18433.1   -2.93872
     18436.1   -2.88061
     18439.1   -2.82370
     18442.1   -2.76834
     18445.1   -2.71485
     18448.1   -2.66356
     18451.1   -2.61474
     18454.1   -2.56866
     18457.1   -2.52555
     18460.2   -2.48562
     18463.2   -2.44901
     18466.2   -2.41586
     18469.2   -2.38626
     18472.2   -2.36026
     18475.2   -2.33785
     18478.2   -2.31902
     18481.2   -2.30369
     18484.2   -2.29177
     18487.2   -2.28311
     18490.2   -2.27756
     18493.2   -2.27490
     18496.2   -2.27492
     18499.2   -2.27738
     18502.3   -2.28202
     18505.3   -2.28857
     18508.3   -2.29674
     18511.3   -2.30626
     18514.3   -2.31685
     18517.3   -2.32822
     18520.3   -2.34010
     18523.3   -2.35225
     18526.3   -2.36442
     18529.3   -2.37638
     18532.3   -2.38795
     18535.3   -2.39895
     18538.3   -2.40924
     18541.4   -2.41868
     18544.4   -2.42720
     18547.4   -2.43472
     18550.4   -2.44122
     18553.4   -2.44669
     18556.4   -2.45114
     18559.4   -2.45461
     18562.4   -2.45717
     18565.4   -2.45890
     18568.4   -2.45991
     18571.4   -2.46029
     18574.4   -2.46017
     18577.4   -2.45968
     18580.5   -2.45894
     18583.5   -2.45809
     18586.5   -2.45724
     18589.5   -2.45652
     18592.5   -2.45603
     18595.5   -2.45586
     18598.5   -2.45609
     18601.5   -2.45678
     18604.5   -2.45798
     18607.5   -2.45970
     18610.5   -2.46195
     18613.5   -2.46471
     18616.5   -2.46796
     18619.5   -2.47162
     18622.6   -2.47564
     18625.6   -2.47992
     18628.6   -2.48436
     18631.6   -2.48886
     18634.6   -2.49330
     18637.6   -2.49755
     18640.6   -2.50149
     18643.6   -2.50500
     18646.6   -2.50796
     18649.6   -2.51025
     18652.6   -2.51177
     18655.6   -2.51244
     18658.6   -2.51218
     18661.7   -2.51093
     18664.7   -2.50865
     18667.7   -2.50534
     18670.7   -2.50098
     18673.7   -2.49561
     18676.7   -2.48927
     18679.7   -2.48202
     18682.7   -2.47394
     18685.7   -2.46515
     18688.7   -2.45576
     18691.7   -2.44589
     18694.7   -2.43570
     18697.7   -2.42532
     18700.8   -2.41491
     18703.8   -2.40464
     18706.8   -2.39464
     18709.8   -2.38508
     18712.8   -2.37609
     18715.8   -2.36780
     18718.8   -2.36032
     18721.8   -2.35376
     18724.8   -2.34819
     18727.8   -2.34367
     18730.8   -2.34024
     18733.8   -2.33792
     18736.8   -2.33670
     18739.8   -2.33654
     18742.9   -2.33740
     18745.9   -2.33920
     18748.9   -2.34186
     18751.9   -2.34526
     18754.9   -2.34930
     18757.9   -2.35383
     18760.9   -2.35872
     18763.9   -2.36383
     18766.9   -2.36902
     18769.9   -2.37416
     18772.9   -2.37911
     18775.9   -2.38377
     18778.9   -2.38803
     18782.0   -2.39182
     18785.0   -2.39508
     18788.0   -2.39777
     18791.0   -2.39989
     18794.0   -2.40147
     18797.0   -2.40257
     18800.0   -2.40326
     18803.0   -2.40366
     18806.0   -2.40393
     18809.0   -2.40424
     18812.0   -2.40478
     18815.0   -2.40579
     18818.0   -2.40751
     18821.1   -2.41021
     18824.1   -2.41417
     18827.1   -2.41967
     18830.1   -2.42700
     18833.1   -2.43645
     18836.1   -2.44831
     18839.1   -2.46284
     18842.1   -2.48030
     18845.1   -2.50093
     18848.1   -2.52493
     18851.1   -2.55247
     18854.1   -2.58370
     18857.1   -2.61873
     18860.2   -2.65760
     18863.2   -2.70036
     18866.2   -2.74696
     18869.2   -2.79735
     18872.2   -2.85140
     18875.2   -2.90897
     18878.2   -2.96984
     18881.2   -3.03378
     18884.2   -3.10052
     18887.2   -3.16974
     18890.2   -3.24109
     18893.2   -3.31422
     18896.2   -3.38873
     18899.2   -3.46423
     18902.3   -3.54032
     18905.3   -3.61657
     18908.3   -3.69259
     18911.3   -3.76797
     18914.3   -3.84234
     18917.3   -3.91533
     18920.3   -3.98660
     18923.3   -4.05585
     18926.3   -4.12281
     18929.3   -4.18724
     18932.3   -4.24894
     18935.3   -4.30776
     18938.3   -4.36359
     18941.4   -4.41636
     18944.4   -4.46606
     18947.4   -4.51269
     18950.4   -4.55632
     18953.4   -4.59706
     18956.4   -4.63502
     18959.4   -4.67037
     18962.4   -4.70331
     18965.4   -4.73404
     18968.4   -4.76280
     18971.4   -4.78984
     18974.4   -4.81538
     18977.4   -4.83970
     18980.5   -4.86303
     18983.5   -4.88561
     18986.5   -4.90767
     18989.5   -4.92940
     18992.5   -4.95100
     18995.5   -4.97261
     18998.5   -4.99437
     19001.5   -5.01637
     19004.5   -5.03868
     19007.5   -5.06133
     19010.5   -5.08432
     19013.5   -5.10763
     19016.5   -5.13118
     19019.5   -5.15488
     19022.6   -5.17863
     19025.6   -5.20228
     19028.6   -5.22567
     19031.6   -5.24864
     19034.6   -5.27100
     19037.6   -5.29258
     19040.6   -5.31318
     19043.6   -5.33263
     19046.6   -5.35076
     19049.6   -5.36743
     19052.6   -5.38249
     19055.6   -5.39586
     19058.6   -5.40744
     19061.7   -5.41720
     19064.7   -5.42513
     19067.7   -5.43124
     19070.7   -5.43560
     19073.7   -5.43831
     19076.7   -5.43951
     19079.7   -5.43937
     19082.7   -5.43811
     19085.7   -5.43596
     19088.7   -5.43320
     19091.7   -5.43011
     19094.7   -5.42703
     19097.7   -5.42427
     19100.8   -5.42217
     19103.8   -5.42110
     19106.8   -5.42138
     19109.8   -5.42335
     19112.8   -5.42733
     19115.8   -5.43362
     19118.8   -5.44250
     19121.8   -5.45421
     19124.8   -5.46896
     19127.8   -5.48690
     19130.8   -5.50000
     19133.8   -5.50000
     19136.8   -5.50000
     19139.8   -5.50000
     19142.9   -5.50000
     19145.9   -5.50000
     19148.9   -5.50000
     19151.9   -5.50000
     19154.9   -5.50000
     19157.9   -5.50000
     19160.9   -5.50000
     19163.9   -5.50000
     19166.9   -5.50000
     19169.9   -5.50000
     19172.9   -5.50000
     19175.9   -5.50000
     19178.9   -5.50000
     19182.0   -5.50000
     19185.0   -5.50000
     19188.0   -5.50000
     19191.0   -5.50000
     19194.0   -5.50000
     19197.0   -5.50000
     19200.0   -5.50000
     19203.0   -5.50000
     19206.0   -5.50000
     19209.0   -5.50000
     19212.0   -5.50000
     19215.0   -5.50000
     19218.0   -5.50000
     19221.1   -5.50000
     19224.1   -5.50000
     19227.1   -5.50000
     19230.1   -5.50000
     19233.1   -5.50000
     19236.1   -5.50000
     19239.1   -5.50000
     19242.1   -5.50000
     19245.1   -5.50000
     19248.1   -5.50000
     19251.1   -5.50000
     19254.1   -5.50000
     19257.1   -5.50000
     19260.2   -5.50000
     19263.2   -5.50000
     19266.2   -5.50000
     19269.2   -5.50000
     19272.2   -5.50000
     19275.2   -5.50000
     19278.2   -5.50000
     19281.2   -5.45824
     19284.2   -5.40542
     19287.2   -5.35586
     19290.2   -5.30985
     19293.2   -5.26765
     19296.2   -5.22944
     19299.2   -5.19537
     19302.3   -5.16554
     19305.3   -5.13997
     19308.3   -5.11864
     19311.3   -5.10150
     19314.3   -5.08842
     19317.3   -5.07925
     19320.3   -5.07377
     19323.3   -5.07176
     19326.3   -5.07292
     19329.3   -5.07696
     19332.3   -5.08354
     19335.3   -5.09232
     19338.3   -5.10294
     19341.4   -5.11500
     19344.4   -5.12815
     19347.4   -5.14201
     19350.4   -5.15620
     19353.4   -5.17037
     19356.4   -5.18417
     19359.4   -5.19729
     19362.4   -5.20942
     19365.4   -5.22029
     19368.4   -5.22965
     19371.4   -5.23730
     19374.4   -5.24305
     19377.4   -5.24676
     19380.5   -5.24833
     19383.5   -5.24768
     19386.5   -5.24479
     19389.5   -5.23964
     19392.5   -5.23227
     19395.5   -5.22274
     19398.5   -5.21116
     19401.5   -5.19764
     19404.5   -5.18233
     19407.5   -5.16540
     19410.5   -5.14703
     19413.5   -5.12744
     19416.5   -5.10683
     19419.5   -5.08542
     19422.6   -5.06345
     19425.6   -5.04114
     19428.6   -5.01870
     19431.6   -4.99637
     19434.6   -4.97435
     19437.6   -4.95284
     19440.6   -4.93202
     19443.6   -4.91205
     19446.6   -4.89309
     19449.6   -4.87525
     19452.6   -4.85866
     19455.6   -4.84338
     19458.6   -4.82949
     19461.7   -4.81701
     19464.7   -4.80598
     19467.7   -4.79637
     19470.7   -4.78816
     19473.7   -4.78132
     19476.7   -4.77577
     19479.7   -4.77143
     19482.7   -4.76823
     19485.7   -4.76605
     19488.7   -4.76478
     19491.7   -4.76430
     19494.7   -4.76450
     19497.7   -4.76524
     19500.8   -4.76642
     19503.8   -4.76790
     19506.8   -4.76958
     19509.8   -4.77135
     19512.8   -4.77313
     19515.8   -4.77481
     19518.8   -4.77634
     19521.8   -4.77766
     19524.8   -4.77871
     19527.8   -4.77948
     19530.8   -4.77995
     19533.8   -4.78011
     19536.8   -4.77997
     19539.8   -4.77957
     19542.9   -4.77893
     19545.9   -4.77811
     19548.9   -4.77714
     19551.9   -4.77609
     19554.9   -4.77502
     19557.9   -4.77399
     19560.9   -4.77307
     19563.9   -4.77230
     19566.9   -4.77175
     19569.9   -4.77145
     19572.9   -4.77144
     19575.9   -4.77174
     19578.9   -4.77237
     19582.0   -4.77331
     19585.0   -4.77455
     19588.0   -4.77604
     19591.0   -4.77773
     19594.0   -4.77955
     19597.0   -4.78142
     19600.0   -4.78322
     19603.0   -4.78484
     19606.0   -4.78615
     19609.0   -4.78701
     19612.0   -4.78726
     19615.0   -4.78676
     19618.0   -4.78533
     19621.1   -4.78283
     19624.1   -4.77910
     19627.1   -4.77398
     19630.1   -4.76733
     19633.1   -4.75904
     19636.1   -4.74899
     19639.1   -4.73709
     19642.1   -4.72327
     19645.1   -4.70750
     19648.1   -4.68975
     19651.1   -4.67005
     19654.1   -4.64843
     19657.1   -4.62499
     19660.2   -4.59982
     19663.2   -4.57307
     19666.2   -4.54492
     19669.2   -4.51557
     19672.2   -4.48526
     19675.2   -4.45425
     19678.2   -4.42282
     19681.2   -4.39128
     19684.2   -4.35994
     19687.2   -4.32915
     19690.2   -4.29924
     19693.2   -4.27055
     19696.2   -4.24343
     19699.2   -4.21821
     19702.3   -4.19521
     19705.3   -4.17473
     19708.3   -4.15704
     19711.3   -4.14241
     19714.3   -4.13103
     19717.3   -4.12310
     19720.3   -4.11875
     19723.3   -4.11808
     19726.3   -4.12112
     19729.3   -4.12788
     19732.3   -4.13831
     19735.3   -4.15229
     19738.3   -4.16967
     19741.4   -4.19025
     19744.4   -4.21377
     19747.4   -4.23993
     19750.4   -4.26839
     19753.4   -4.29876
     19756.4   -4.33064
     19759.4   -4.36357
     19762.4   -4.39708
     19765.4   -4.43068
     19768.4   -4.46389
     19771.4   -4.49619
     19774.4   -4.52708
     19777.4   -4.55608
     19780.5   -4.58270
     19783.5   -4.60649
     19786.5   -4.62704
     19789.5   -4.64394
     19792.5   -4.65686
     19795.5   -4.66548
     19798.5   -4.66955
     19801.5   -4.66888
     19804.5   -4.66332
     19807.5   -4.65278
     19810.5   -4.63724
     19813.5   -4.61673
     19816.5   -4.59135
     19819.5   -4.56125
     19822.6   -4.52664
     19825.6   -4.48778
     19828.6   -4.44498
     19831.6   -4.39861
     19834.6   -4.34906
     19837.6   -4.29675
     19840.6   -4.24215
     19843.6   -4.18575
     19846.6   -4.12803
     19849.6   -4.06951
     19852.6   -4.01068
     19855.6   -3.95206
     19858.6   -3.89411
     19861.7   -3.83733
     19864.7   -3.78214
     19867.7   -3.72897
     19870.7   -3.67818
     19873.7   -3.63012
     19876.7   -3.58508
     19879.7   -3.54330
     19882.7   -3.50498
     19885.7   -3.47026
     19888.7   -3.43924
     19891.7   -3.41196
     19894.7   -3.38841
     19897.7   -3.36853
     19900.8   -3.35222
     19903.8   -3.33934
     19906.8   -3.32968
     19909.8   -3.32305
     19912.8   -3.31917
     19915.8   -3.31779
     19918.8   -3.31859
     19921.8   -3.32128
     19924.8   -3.32554
     19927.8   -3.33104
     19930.8   -3.33748
     19933.8   -3.34455
     19936.8   -3.35195
     19939.8   -3.35943
     19942.9   -3.36672
     19945.9   -3.37362
     19948.9   -3.37994
     19951.9   -3.38551
     19954.9   -3.39022
     19957.9   -3.39400
     19960.9   -3.39679
     19963.9   -3.39860
     19966.9   -3.39944
     19969.9   -3.39939
     19972.9   -3.39855
     19975.9   -3.39704
     19978.9   -3.39502
     19982.0   -3.39267
     19985.0   -3.39018
     19988.0   -3.38777
     19991.0   -3.38566
     19994.0   -3.38407
     19997.0   -3.38323
     20000.0   -3.38336
