                                                                        
  Data: Real and imaginary indices of refraction of sulfuric acid       
  solutions at 75 and 90% H2SO4, by weight, plus the standard       
  deviations of the measurements.                  
        Real and imaginary indices of refraction of nitric acid       
  solutions at 68% HNO3, by weight, plus the standard       
  deviations of the measurements.                  
                                                                        
  Reference: E. E. Remsberg, D. Lavery, and B. Crawford, Optical        
  constants for sulfuric and nitric acids, J. Chem. and Engin. Data,    
  vol.19, pgs. 263-255, 1974.                                           
                                                                        
  Format: wavenumber(cm-1), wavelength(microns), imaginary index,       
  imaginary index standard deviation, real index, real index standard   
  deviation, correlation coefficient.
  184 lines at 75% H2SO4                                                
  211 lines at 90% H2SO4                                                
   44 lines at 68% HNO3                                                
  2x,f6.1,2x,f6.3,5(2x,f6.4)                                            
                                                                        
   OPTICAL CONSTANTS FOR 75% AQUEOUS H2SO4                                 
   cm-1    microns    k     sk     n        sn      rho                     
  1571.0   6.365   .1435   .0051  1.3957   .0072  -.6634
  1567.8   6.378   .1423   .0051  1.3927   .0072  -.6672
  1551.6   6.445   .1403   .0051  1.3870   .0072  -.6749
  1555.4   6.429   .1379   .0051  1.3828   .0072  -.6808
  1549.2   6.455   .1373   .0051  1.3773   .0072  -.6887
  1543.2   6.480   .1362   .0051  1.3717   .0073  -.6967
  1537.2   6.505   .1367   .0051  1.3665   .0073  -.7031
  1531.3   6.530   .1351   .0051  1.3629   .0074  -.7082
  1525.5   6.555   .1343   .0051  1.3588   .0074  -.7135
  1519.7   6.580   .1325   .0050  1.3556   .0075  -.7185
  1514.0   6.605   .1320   .0050  1.3513   .0075  -.7234
  1508.3   6.630   .1333   .0051  1.3454   .0076  -.7273
  1502.8   6.654   .1352   .0051  1.3391   .0076  -.7312
  1497.3   6.679   .1363   .0051  1.3346   .0077  -.7338
  1491.8   6.703   .1350   .0051  1.3316   .0077  -.7370
  1486.4   6.728   .1360   .0051  1.3270   .0078  -.7388
  1481.1   6.752   .1359   .0051  1.3219   .0078  -.7412
  1475.8   6.776   .1376   .0051  1.3161   .0078  -.7412
  1470.6   6.800   .1391   .0051  1.3100   .0078  -.7405
  1465.4   6.824   .1426   .0051  1.3034   .0078  -.7367
  1460.3   6.848   .1413   .0051  1.3007   .0078  -.7373
  1455.2   6.872   .1431   .0051  1.2955   .0078  -.7341
  1450.2   6.896   .1437   .0051  1.2911   .0078  -.7317
  1445.3   6.919   .1460   .0050  1.2846   .0077  -.7262
  1440.4   6.943   .1450   .0050  1.2819   .0077  -.7252
  1435.5   6.966   .1470   .0049  1.2707   .0074  -.6727
  1430.7   6.990   .1504   .0049  1.2632   .0073  -.6637
  1426.0   7.013   .1528   .0049  1.2573   .0072  -.6569
  1421.3   7.036   .1542   .0049  1.2518   .0071  -.6519
  1416.6   7.059   .1594   .0050  1.2429   .0070  -.6436
  1412.0   7.082   .1647   .0050  1.2344   .0069  -.6371
  1407.4   7.105   .1676   .0051  1.2305   .0069  -.6350
  1402.9   7.128   .1705   .0051  1.2260   .0068  -.6338
  1389.6   7.196   .1833   .0054  1.2069   .0068  -.6340
  1378.8   7.253   .1953   .0056  1.1897   .0068  -.6444
  1368.3   7.308   .2077   .0060  1.1759   .0069  -.6582
  1358.0   7.364   .2277   .0064  1.1523   .0078  -.5946
  1347.9   7.419   .2492   .0070  1.1347   .0082  -.6355
  1338.1   7.473   .2771   .0078  1.1201   .0087  -.6702
  1328.4   7.528   .3144   .0088  1.1093   .0092  -.6991
  1319.0   7.582   .3486   .0098  1.1006   .0096  -.7197
  1309.8   7.635   .3806   .0106  1.1048   .0099  -.7264
  1300.8   7.688   .4095   .0113  1.1086   .0101  -.7321
  1291.9   7.741   .4312   .0118  1.1186   .0103  -.7320
  1283.3   7.792   .4496   .0122  1.1306   .0104  -.7306
  1274.8   7.844   .4804   .0132  1.1206   .0106  -.7413
  1266.5   7.896   .4880   .0132  1.1384   .0106  -.7354
  1258.3   7.947   .5189   .0142  1.1294   .0108  -.7429
  1250.4   7.997   .5448   .0149  1.1339   .0109  -.7440
  1242.5   8.048   .5772   .0158  1.1432   .0110  -.7420
  1234.8   8.098   .6109   .0167  1.1528   .0111  -.7399
  1227.3   8.148   .6290   .0170  1.1756   .0111  -.7321
  1219.9   8.197   .6546   .0175  1.1850   .0122  -.7096
  1212.6   8.247   .6781   .0179  1.2126   .0123  -.7062
  1205.5   8.295   .7157   .0188  1.2295   .0124  -.7062
  1198.5   8.344   .7268   .0190  1.2559   .0126  -.7041
  1194.3   8.373   .7361   .0191  1.2749   .0126  -.7036
  1190.2   8.402   .7467   .0194  1.2907   .0127  -.7040
  1186.2   8.575   .7455   .0193  1.3115   .0129  -.7044
  1182.1   8.460   .7505   .0194  1.3325   .0130  -.7056
  1178.2   8.488   .7769   .0202  1.3418   .0131  -.7053
  1174.2   8.516   .7786   .0203  1.3656   .0132  -.7074
  1170.3   8.545   .7922   .0207  1.3865   .0134  -.7084
  1166.5   8.573   .8032   .0211  1.4002   .0135  -.7085
  1162.7   8.601   .7927   .0208  1.4254   .0137  -.7134
  1158.9   8.629   .7982   .0210  1.4396   .0138  -.7141
  1155.1   8.657   .7949   .0210  1.4615   .0140  -.7186
  1151.4   8.685   .7913   .0211  1.4864   .0142  -.7239
  1147.8   8.712   .7986   .0214  1.5021   .0143  -.7253
  1144.1   8.740   .7897   .0214  1.5251   .0146  -.7315
  1140.5   8.768   .7782   .0213  1.5495   .0148  -.7389
  1137.0   8.795   .7729   .0213  1.5647   .0150  -.7432
  1133.5   8.822   .7545   .0201  1.5804   .0157  -.7477
  1130.0   8.850   .7403   .0198  1.5959   .0159  -.7526
  1126.5   8.877   .7383   .0198  1.5949   .0159  -.7526
  1123.1   8.904   .7264   .0195  1.6056   .0160  -.7561
  1119.7   8.931   .7038   .0190  1.6201   .0162  -.7617
  1116.3   8.958   .6915   .0187  1.6254   .0163  -.7640
  1113.0   8.985   .6772   .0183  1.6327   .0165  -.7671
  1109.7   9.011   .6682   .0181  1.6318   .0165  -.7671
  1106.4   9.038   .6564   .0177  1.6285   .0164  -.7660
  1103.1   9.065   .6376   .0171  1.6239   .0163  -.7641
  1096.7   9.118   .6280   .0167  1.6084   .0161  -.7574
  1092.5   9.153   .6157   .0162  1.5973   .0159  -.7519
  1088.4   9.188   .6141   .0161  1.5894   .0157  -.7484
  1084.3   9.223   .6207   .0161  1.5704   .0154  -.7413
  1080.2   9.258   .6349   .0164  1.5549   .0152  -.7371
  1076.2   9.292   .6446   .0167  1.5565   .0153  -.7387
  1072.2   9.327   .6678   .0174  1.5603   .0154  -.7420
  1068.4   9.360   .7149   .0210  1.5604   .0158  -.7993
  1064.4   9.395   .7299   .0213  1.5804   .0159  -.7957
  1060.6   9.429   .7599   .0222  1.5996   .0160  -.7921
  1056.7   9.463   .7804   .0228  1.6232   .0161  -.7883
  1053.0   9.497   .7937   .0232  1.6455   .0161  -.7853
  1049.2   9.531   .7997   .0234  1.6854   .0163  -.7828
  1045.5   9.565   .7954   .0233  1.7240   .0165  -.7827
  1041.8   9.599   .7814   .0230  1.7606   .0168  -.7854
  1038.2   9.632   .7843   .0232  1.7760   .0169  -.7859
  1034.6   9.666   .7564   .0225  1.8078   .0172  -.7921
  1031.1   9.698   .7330   .0220  1.8394   .0175  -.7986
  1027.6   9.731   .7127   .0215  1.8548   .0177  -.8034
  1024.1   9.765   .6593   .0201  1.8781   .0181  -.8139
  1020.7   9.797   .6371   .0195  1.8884   .0182  -.8185
  1017.3   9.830   .6218   .0189  1.8742   .0180  -.8169
  1013.9   9.863   .5851   .0180  1.8945   .0184  -.8251
  1010.6   9.895   .5639   .0172  1.8870   .0182  -.8245
  1007.3   9.928   .5359   .0163  1.8835   .0182  -.8248
  1004.0   9.960   .5268   .0148  1.8715   .0163  -.8205
  1000.8   9.992   .5024   .0139  1.8646   .0160  -.8159
   999.2  10.008   .4932   .0136  1.8608   .0159  -.8136
   995.2  10.048   .4735   .0129  1.8512   .0155  -.8080
   991.3  10.088   .4565   .0124  1.8432   .0152  -.8024
   987.4  10.128   .4449   .0120  1.8333   .0149  -.7979
   983.6  10.167   .4311   .0115  1.8212   .0146  -.7919
   979.8  10.206   .4260   .0114  1.8058   .0143  -.7888
   976.0  10.246   .4172   .0111  1.7963   .0141  -.7853
   972.3  10.285   .4155   .0115  1.7757   .0146  -.7845
   968.7  10.323   .4048   .0112  1.7699   .0143  -.7798
   965.1  10.362   .4064   .0111  1.7583   .0142  -.7763
   961.5  10.400   .3980   .0109  1.7563   .0140  -.7732
   958.0  10.438   .3975   .0108  1.7484   .0139  -.7706
   954.5  10.477   .3928   .0106  1.7405   .0137  -.7667
   951.0  10.515   .3893   .0105  1.7347   .0136  -.7640
   947.6  10.553   .3806   .0102  1.7293   .0134  -.7590
   944.2  10.591   .3844   .0103  1.7119   .0132  -.7572
   940.9  10.628   .3758   .0101  1.7063   .0130  -.7527
   937.6  10.666   .3906   .0105  1.6872   .0130  -.7575
   934.3  10.703   .4002   .0108  1.6677   .0130  -.7618
   931.1  10.740   .4017   .0108  1.6622   .0130  -.7628
   927.9  10.777   .4234   .0115  1.6481   .0133  -.7721
   924.8  10.813   .4497   .0122  1.6314   .0137  -.7760
   921.6  10.851   .4755   .0130  1.6286   .0140  -.7835
   918.5  10.887   .4902   .0134  1.6350   .0142  -.7862
   915.5  10.923   .5162   .0142  1.6370   .0145  -.7911
   912.4  10.960   .5446   .0151  1.6469   .0148  -.7953
   909.4  10.996   .5596   .0155  1.6648   .0150  -.7961
   906.5  11.031   .5813   .0162  1.6832   .0153  -.7980
   903.5  11.068   .5907   .0166  1.7158   .0156  -.7998
   900.6  11.104   .5960   .0168  1.7405   .0158  -.8019
   900.0  11.111   .5974   .0169  1.7434   .0158  -.8021
   896.6  11.153   .5900   .0168  1.7808   .0161  -.8059
   893.2  11.196   .5817   .0168  1.8113   .0164  -.8103
   889.8  11.238   .5654   .0165  1.8431   .0168  -.8163
   886.5  11.280   .5592   .0164  1.8502   .0168  -.8179
   883.2  11.322   .5253   .0156  1.8722   .0171  -.8239
   880.0  11.364   .4800   .0146  1.8950   .0174  -.8317
   876.7  11.406   .4699   .0142  1.8865   .0172  -.8296
   873.6  11.447   .4489   .0133  1.8745   .0153  -.8141
   870.4  11.489   .4277   .0127  1.8714   .0152  -.8153
   867.3  11.530   .3981   .0120  1.8752   .0152  -.8182
   864.2  11.571   .3775   .0114  1.8626   .0150  -.8161
   861.2  11.612   .3597   .0108  1.8561   .0149  -.8144
   858.2  11.652   .3243   .0099  1.8539   .0147  -.8130
   855.2  11.693   .3331   .0099  1.8396   .0145  -.8070
   852.3  11.733   .3370   .0099  1.8240   .0142  -.8000
   849.4  11.773   .3064   .0460  1.8204   .0063   .7758
   846.5  11.813   .2900   .0418  1.8149   .0045   .5743
   843.6  11.854   .3061   .0451  1.8051   .0045   .5050
   842.2  11.874   .3156   .0473  1.8044   .0049   .5939
   840.8  11.893   .3248   .0491  1.8014   .0052   .6259
   839.4  11.913   .3117   .0502  1.8040   .0050   .6276
   838.0  11.933   .3227   .0531  1.7996   .0052   .6364
   836.6  11.953   .3163   .0510  1.7954   .0043   .4678
   835.2  11.973   .2982   .0462  1.7909   .0036  -.0564
   833.8  11.993   .3001   .0466  1.7858   .0037  -.2651
   832.5  12.012   .2959   .0454  1.7837   .0038  -.4014
   831.1  12.032   .2804   .0414  1.7822   .0043  -.6475
   829.7  12.053   .2648   .0375  1.7799   .0050  -.7959
   828.4  12.071   .2617   .0367  1.7758   .0056  -.8450
   827.0  12.092   .2632   .0370  1.7719   .0060  -.8638
   825.7  12.111   .2681   .0381  1.7679   .0062  -.8722
   824.4  12.130   .2598   .0361  1.7663   .0067  -.8992
   823.1  12.149   .2589   .0358  1.7629   .0071  -.9119
   818.3  12.220   .2565   .0353  1.7517   .0085  -.9413
   809.8  12.349   .2468   .0266  1.7351   .0081  -.9366
   801.6  12.475   .2480   .0267  1.7194   .0093  -.9531
   793.6  12.601   .2423   .0255  1.7086   .0101  -.9622
   785.9  12.724   .2397   .0251  1.6951   .0112  -.9697
   778.4  12.847   .2472   .0266  1.6819   .0124  -.9738
   771.1  12.968   .2580   .0288  1.6671   .0136  -.9766
   764.1  13.087   .2482   .0271  1.6632   .0139  -.9790
   757.2  13.207   .2420   .0260  1.6595   .0141  -.9804
   750.6  13.323   .2534   .0284  1.6453   .0156  -.9823
   747.3  13.382   .2386   .0256  1.6522   .0147  -.9821
                                                                        
   OPTICAL CONSTANTS FOR 90% AQUEOUS H2SO4                                 
   cm-1    microns    k     sk     n        sn      rho                     
  1567.1   6.381   .0660   .0030  1.3190   .0060  -.6700
  1545.5   6.470   .0620   .0030  1.3060   .0070  -.7190
  1518.9   6.584   .0590   .0030  1.2870   .0080  -.7690
  1496.4   6.683   .0590   .0030  1.2620   .0080  -.7840
  1472.3   6.792   .0650   .0030  1.2140   .0060  -.6430
  1449.3   6.900   .0750   .0030  1.1640   .0050  -.5010
  1427.3   7.006   .1070   .0050  1.0820   .0070  -.7520
  1422.6   7.029   .1260   .0050  1.0580   .0080  -.7950
  1417.9   7.053   .1530   .0060  1.0320   .0090  -.8270
  1411.0   7.087   .2040   .0080  1.0020   .0100  -.8510
  1404.1   7.122   .2700   .0100   .9930   .0110  -.8470
  1399.6   7.145   .3160   .0120   .9980   .0110  -.8360
  1392.9   7.179   .3740   .0130  1.0210   .0100  -.8070
  1388.5   7.202   .4090   .0130  1.0420   .0100  -.7830
  1382.0   7.236   .4450   .0140  1.0800   .0090  -.7430
  1375.6   7.270   .4760   .0140  1.1200   .0090  -.7040
  1369.3   7.303   .4870   .0140  1.1720   .0090  -.6590
  1365.1   7.325   .4810   .0130  1.2070   .0100  -.6940
  1361.0   7.402   .4800   .0130  1.2330   .0100  -.6870
  1354.8   7.381   .4710   .0130  1.2660   .0100  -.6810
  1348.8   7.414   .4650   .0130  1.2860   .0100  -.6790
  1344.8   7.436   .4500   .0120  1.3000   .0100  -.6800
  1338.9   7.469   .4150   .0110  1.3180   .0100  -.6830
  1335.0   7.491   .3930   .0110  1.3210   .0100  -.6840
  1329.2   7.523   .3720   .0100  1.3200   .0100  -.6840
  1325.4   7.545   .3610   .0100  1.3180   .0100  -.6840
  1319.7   7.577   .3420   .0100  1.3070   .0100  -.6780
  1316.0   7.599   .3380   .0090  1.3020   .0100  -.6740
  1312.3   7.620   .3330   .0090  1.2980   .0100  -.6720
  1306.8   7.652   .3330   .0090  1.2850   .0100  -.6650
  1303.2   7.673   .3320   .0090  1.2790   .0100  -.6620
  1296.0   7.716   .3420   .0090  1.2680   .0100  -.6610
  1287.3   7.768   .3420   .0090  1.2590   .0100  -.6590
  1277.0   7.831   .3780   .0100  1.2430   .0100  -.6690
  1268.6   7.883   .3800   .0100  1.2430   .0100  -.6700
  1258.7   7.945   .4090   .0110  1.2320   .0100  -.6780
  1250.7   7.996   .4210   .0110  1.2310   .0100  -.6810
  1241.3   8.056   .4490   .0120  1.2280   .0100  -.6860
  1233.6   8.106   .4750   .0130  1.2270   .0100  -.6900
  1226.0   8.157   .4970   .0140  1.2210   .0100  -.6930
  1217.2   8.216   .5220   .0150  1.2190   .0120  -.7340
  1208.5   8.275   .5680   .0160  1.2320   .0120  -.7330
  1200.0   8.333   .6170   .0180  1.2590   .0120  -.7250
  1191.7   8.391   .6660   .0190  1.3030   .0120  -.7110
  1183.5   8.450   .6820   .0190  1.3620   .0120  -.6990
  1175.6   8.506   .7090   .0200  1.4170   .0120  -.6870
  1174.3   8.516   .7060   .0200  1.4270   .0120  -.6860
  1169.1   8.554   .6980   .0190  1.4650   .0130  -.6850
  1165.2   8.582   .6870   .0190  1.4920   .0130  -.6860
  1160.1   8.620   .6810   .0190  1.5190   .0130  -.6850
  1155.1   8.657   .6640   .0190  1.5540   .0130  -.6880
  1151.4   8.685   .6440   .0160  1.5720   .0130  -.6940
  1146.5   8.722   .6330   .0180  1.5910   .0130  -.6960
  1142.9   8.750   .6280   .0180  1.6030   .0130  -.6970
  1138.1   8.787   .6090   .0180  1.6110   .0140  -.7040
  1132.2   8.832   .5590   .0160  1.6410   .0160  -.8090
  1128.7   8.860   .5390   .0150  1.6520   .0160  -.8150
  1125.2   8.887   .5240   .0150  1.6610   .0170  -.8200
  1121.8   8.914   .5040   .0150  1.6620   .0170  -.8230
  1117.2   8.951   .4850   .0140  1.6610   .0170  -.8250
  1113.9   8.977   .4660   .0140  1.6710   .0170  -.8320
  1109.5   9.013   .4500   .0130  1.6640   .0170  -.8320
  1106.2   9.040   .4370   .0130  1.6630   .0170  -.8330
  1101.8   9.076   .4150   .0130  1.6600   .0180  -.8350
  1098.6   9.102   .4020   .0120  1.6500   .0180  -.8310
  1095.4   9.129   .3900   .0120  1.6440   .0180  -.8290
  1091.2   9.164   .3860   .0110  1.6280   .0170  -.8190
  1088.1   9.190   .3750   .0110  1.6270   .0170  -.8190
  1085.0   9.217   .3630   .0110  1.6210   .0170  -.8160
  1080.9   9.252   .3590   .0100  1.5970   .0160  -.7970
  1078.9   9.269   .3560   .0100  1.5900   .0160  -.7910
  1077.9   9.277   .3560   .0100  1.5850   .0160  -.7870
  1074.9   9.303   .3580   .0100  1.5760   .0160  -.7790
  1070.9   9.338   .3610   .0100  1.5660   .0150  -.7680
  1067.1   9.371   .3950   .0100  1.5240   .0120  -.7460
  1063.2   9.406   .3940   .0100  1.5210   .0120  -.7450
  1060.3   9.431   .4010   .0100  1.5160   .0120  -.7440
  1057.4   9.457   .4040   .0100  1.5150   .0120  -.7440
  1053.6   9.491   .4040   .0100  1.5190   .0120  -.7460
  1050.8   9.517   .4220   .0110  1.5130   .0120  -.7480
  1048.0   9.542   .4240   .0110  1.5190   .0130  -.7510
  1047.0   9.551   .4210   .0110  1.5220   .0130  -.7510
  1044.3   9.576   .4090   .0110  1.5230   .0130  -.7490
  1041.5   9.602   .4030   .0100  1.5250   .0130  -.7490
  1037.9   9.635   .3950   .0110  1.5190   .0120  -.7440
  1035.2   9.660   .3830   .0100  1.5150   .0120  -.7380
  1031.7   9.693   .3680   .0090  1.5130   .0120  -.7330
  1029.0   9.718   .3630   .0090  1.5010   .0120  -.7240
  1026.4   9.743   .3550   .0090  1.4860   .0120  -.7140
  1022.9   9.776   .3510   .0090  1.4650   .0110  -.7040
  1021.2   9.792   .3560   .0090  1.4480   .0110  -.7020
  1019.5   9.809   .3610   .0090  1.4320   .0110  -.7040
  1017.8   9.825   .3630   .0090  1.4230   .0110  -.7050
  1016.1   9.842   .3600   .0090  1.4150   .0110  -.7040
  1013.6   9.866   .3650   .0090  1.3930   .0110  -.7110
  1011.9   9.882   .3740   .0100  1.3890   .0130  -.6860
  1010.2   9.899   .3810   .0100  1.3740   .0120  -.6740
  1008.6   9.915   .3890   .0100  1.3600   .0120  -.6650
  1006.1   9.939   .4090   .0110  1.3410   .0120  -.6600
  1004.5   9.955   .4290   .0110  1.3230   .0120  -.6590
  1002.0   9.980   .4600   .0120  1.2990   .0120  -.6630
  1000.4   9.996   .4860   .0130  1.2880   .0120  -.6710
   998.8  10.012   .5130   .0130  1.2800   .0120  -.6780
   996.4  10.036   .5540   .0150  1.2730   .0120  -.6880
   994.8  10.052   .5890   .0160  1.2710   .0120  -.6950
   993.3  10.067   .6160   .0160  1.2750   .0120  -.6980
   990.9  10.092   .6590   .0180  1.2830   .0120  -.7000
   989.4  10.107   .6930   .0190  1.2960   .0120  -.6990
   987.0  10.132   .7380   .0200  1.3200   .0130  -.6970
   985.5  10.147   .7640   .0210  1.3370   .0130  -.6940
   984.0  10.163   .7880   .0220  1.3590   .0130  -.6890
   982.4  10.179   .8170   .0230  1.3780   .0130  -.6820
   980.2  10.202   .8440   .0230  1.4180   .0130  -.6730
   978.7  10.218   .8700   .0240  1.4460   .0130  -.6640
   976.4  10.242   .9150   .0250  1.4800   .0130  -.6450
   974.9  10.257   .9180   .0250  1.5100   .0130  -.6420
   973.4  10.273   .9040   .0260  1.5520   .0140  -.5790
   971.2  10.297   .9090   .0270  1.5970   .0150  -.6830
   969.8  10.311   .9130   .0270  1.6240   .0150  -.6830
   968.3  10.327   .9210   .0270  1.6520   .0150  -.6820
   966.9  10.342   .9260   .0280  1.6810   .0150  -.6810
   965.4  10.358   .9260   .0280  1.7100   .0160  -.6810
   963.3  10.381   .9010   .0280  1.7550   .0160  -.6940
   960.4  10.412   .8700   .0270  1.8080   .0160  -.7080
   958.3  10.435   .8380   .0270  1.8420   .0170  -.7200
   955.5  10.466   .8120   .0260  1.8700   .0170  -.7300
   953.4  10.489   .7800   .0250  1.8930   .0170  -.7410
   951.3  10.512   .7550   .0250  1.9070   .0180  -.7490
   948.6  10.542   .6900   .0230  1.9360   .0180  -.7700
   946.5  10.565   .6440   .0220  1.9460   .0180  -.7850
   943.8  10.595   .6020   .0210  1.9420   .0180  -.8010
   941.8  10.618   .5890   .0210  1.9310   .0190  -.8080
   939.8  10.641   .5620   .0210  1.9120   .0190  -.8230
   937.2  10.670   .5080   .0200  1.9040   .0200  -.8450
   935.2  10.693   .4890   .0190  1.8940   .0200  -.8530
   932.6  10.723   .4720   .0190  1.8620   .0200  -.8640
   930.7  10.745   .4520   .0180  1.8450   .0210  -.8730
   928.1  10.775   .4440   .0180  1.8250   .0210  -.8760
   926.2  10.797   .4420   .0180  1.8110   .0210  -.8760
   924.3  10.819   .4390   .0180  1.8030   .0210  -.8780
   923.1  10.833   .4370   .0180  1.7960   .0210  -.8790
   920.6  10.862   .4610   .0180  1.7800   .0210  -.8700
   917.5  10.899   .4820   .0140  1.7690   .0150  -.8040
   915.1  10.928   .5030   .0140  1.7690   .0150  -.8030
   912.0  10.965   .5260   .0150  1.7800   .0150  -.8040
   909.0  11.001   .5430   .0160  1.7930   .0150  -.8050
   906.6  11.030   .5570   .0160  1.8080   .0150  -.8050
   903.7  11.066   .5540   .0160  1.8450   .0160  -.8090
   903.1  11.073   .5540   .0160  1.8490   .0160  -.8100
   900.8  11.101   .5430   .0160  1.8760   .0160  -.8130
   897.9  10.021   .5170   .0160  1.9050   .0160  -.8190
   895.6  11.166   .5060   .0160  1.9160   .0160  -.8210
   893.3  11.194   .4800   .0150  1.9260   .0160  -.8260
   890.5  11.230   .4520   .0140  1.9360   .0170  -.8310
   888.3  11.257   .4240   .0140  1.9420   .0170  -.8370
   885.5  11.293   .3840   .0130  1.9490   .0170  -.8460
   883.3  11.321   .3520   .0100  1.9590   .0130  -.7320
   882.8  11.328   .3500   .0120  1.9470   .0170  -.8540
   881.1  11.349   .3300   .0100  1.9560   .0130  -.7250
   880.6  11.356   .3320   .0120  1.9360   .0170  -.8580
   879.0  11.377   .3150   .0090  1.9410   .0120  -.7250
   877.9  11.391   .3110   .0110  1.9150   .0170  -.8610
   876.8  11.405   .2930   .0090  1.9320   .0120  -.7230
   875.8  11.418   .2900   .0110  1.9100   .0180  -.8660
   874.7  11.432   .2730   .0080  1.9220   .0120  -.7250
   872.6  11.460   .2610   .0080  1.9100   .0110  -.7330
   870.5  11.488   .2500   .0080  1.9030   .0110  -.7390
   868.4  11.515   .2390   .0080  1.8900   .0110  -.7510
   866.4  11.542   .2380   .0080  1.8730   .0120  -.7660
   863.8  11.577   .2220   .0080  1.8650   .0120  -.7780
   861.8  11.604   .2090   .0070  1.8610   .0120  -.7870
   858.3  11.651   .1990   .0070  1.8430   .0120  -.8070
   855.3  11.692   .2070   .0080  1.8070   .0130  -.8250
   851.9  11.738   .1940   .0080  1.8110   .0130  -.8300
   848.9  11.780   .1920   .0230  1.7880   .0070  -.9500
   846.0  11.820   .2040   .0250  1.7730   .0080  -.9610
   842.7  11.867   .1830   .0210  1.7660   .0090  -.9730
   839.9  11.906   .1730   .0140  1.7600   .0070  -.9460
   837.1  11.946   .1690   .0130  1.7520   .0070  -.9530
   834.3  11.986   .1710   .0140  1.7420   .0080  -.9580
   831.6  12.025   .1690   .0130  1.7350   .0080  -.9610
   828.4  12.071   .1660   .0130  1.7270   .0080  -.9650
   825.7  12.111   .1600   .0120  1.7220   .0080  -.9670
   823.1  12.149   .1580   .0120  1.7160   .0090  -.9690
   820.4  12.189   .1630   .0130  1.7050   .0090  -.9730
   817.4  12.234   .1670   .0130  1.6940   .0100  -.9760
   814.8  12.273   .1640   .0130  1.6900   .0100  -.9770
   812.3  12.311   .1570   .0120  1.6890   .0100  -.9770
   809.8  12.349   .1580   .0120  1.6820   .0110  -.9790
   807.3  12.387   .1620   .0130  1.6740   .0110  -.9800
   804.8  12.425   .1560   .0090  1.6740   .0080  -.9590
   802.0  12.469   .1550   .0090  1.6690   .0080  -.9600
   799.5  12.508   .1580   .0090  1.6610   .0090  -.9630
   797.1  12.545   .1550   .0090  1.6600   .0090  -.9620
   794.3  12.590   .1570   .0090  1.6540   .0090  -.9640
   791.6  12.633   .1570   .0090  1.6480   .0090  -.9660
   788.6  12.681   .1590   .0100  1.6410   .0100  -.9670
   785.1  12.737   .1530   .0090  1.6390   .0100  -.9670
   782.1  12.786   .1530   .0090  1.6360   .0100  -.9680
   779.1  12.835   .1580   .0100  1.6270   .0100  -.9710
   776.2  12.883   .1550   .0100  1.6260   .0100  -.9710
   773.3  12.932   .1580   .0100  1.6200   .0110  -.9720
   770.4  12.980   .1610   .0100  1.6140   .0110  -.9740
   767.2  13.034   .1570   .0090  1.6160   .0090  -.9590
   764.4  13.082   .1580   .0090  1.6100   .0090  -.9600
   761.7  13.129   .1670   .0100  1.5990   .0100  -.9650
   758.9  13.177   .1620   .0090  1.6030   .0100  -.9630
   756.2  13.224   .1660   .0100  1.5970   .0100  -.9650
   753.2  13.277   .1650   .0100  1.5970   .0100  -.9650
   750.6  13.323   .1670   .0100  1.5930   .0110  -.9660
   748.0  13.369   .1700   .0100  1.5880   .0110  -.9670
                                                                        
   OPTICAL CONSTANTS FOR 68% AQUEOUS HNO3                                 
   cm-1    microns    k     sk     n        sn      rho                     
  1087.8   9.193   .1650   .0070  1.4760   .0090  -.9390
  1078.6   9.271   .1620   .0070  1.4740   .0090  -.9390
  1068.8   9.356   .1610   .0070  1.4680   .0090  -.9400
  1057.9   9.453   .1620   .0070  1.4560   .0100  -.9440
  1048.5   9.537   .1700   .0070  1.4440   .0100  -.9490
  1038.4   9.630   .1740   .0080  1.4420   .0110  -.9510
  1029.5   9.713   .1740   .0080  1.4400   .0110  -.9510
  1020.5   9.799   .1740   .0080  1.4320   .0110  -.9530
  1011.6   9.885   .1770   .0080  1.4200   .0120  -.9570
  1002.5   9.975   .1860   .0090  1.4010   .0130  -.9620
   997.7  10.023   .1830   .0090  1.4030   .0130  -.9610
   993.0  10.070   .1950   .0100  1.3880   .0140  -.9650
   987.5  10.127   .2090   .0110  1.3730   .0150  -.9690
   982.9  10.174   .2210   .0120  1.3670   .0150  -.9700
   977.6  10.229   .2400   .0140  1.3640   .0160  -.9710
   972.4  10.284   .2680   .0160  1.3590   .0170  -.9710
   966.1  10.351   .2930   .0260  1.3660   .0260  -.9870
   963.0  10.384   .3130   .0270  1.3860   .0240  -.9850
   958.8  10.430   .3340   .0290  1.4050   .0230  -.9830
   953.9  10.483   .3590   .0310  1.4270   .0210  -.9790
   951.8  10.506   .3650   .0310  1.4410   .0200  -.9770
   949.1  10.536   .3590   .0300  1.4640   .0190  -.9740
   945.0  10.582   .3580   .0290  1.4910   .0170  -.9700
   940.3  10.635   .3270   .0250  1.5310   .0150  -.9650
   936.4  10.679   .3270   .0250  1.5450   .0140  -.9610
   932.5  10.724   .3110   .0230  1.5570   .0130  -.9600
   928.6  10.769   .2810   .0200  1.5770   .0120  -.9580
   924.2  10.820   .2730   .0210  1.5750   .0140  -.9700
   919.8  10.872   .2570   .0190  1.5760   .0140  -.9710
   916.1  10.916   .2400   .0170  1.5780   .0130  -.9710
   911.9  10.966   .2280   .0160  1.5730   .0130  -.9710
   908.3  11.010   .2180   .0140  1.5710   .0130  -.9720
   904.7  11.053   .2110   .0140  1.5650   .0130  -.9730
   901.2  11.096   .2050   .0130  1.5630   .0130  -.9730
   900.1  11.110   .2070   .0140  1.5590   .0130  -.9740
   893.8  11.188   .1990   .0130  1.5490   .0140  -.9750
   888.2  11.259   .1930   .0130  1.5450   .0140  -.9750
   882.7  11.329   .1870   .0100  1.5430   .0110  -.9630
   876.7  11.406   .1820   .0100  1.5380   .0110  -.9640
   871.5  11.474   .1870   .0110  1.5270   .0120  -.9670
   866.3  11.543   .1770   .0100  1.5310   .0120  -.9650
   860.7  11.618   .1850   .0110  1.5170   .0130  -.9690
   855.7  11.686   .1770   .0100  1.5210   .0120  -.9670
   850.3  11.761   .1710   .0100  1.5220   .0120  -.9660
